Timestamp,AccelX,AccelY,AccelZ,GyroX,GyroY,GyroZ,FSR,Label
0,0.02537545,-0.202430599,9.832768677,0,0,0,300,0
0,0.085779489,0.000817428,9.810518459,0,0,0,300,0
0,0.001969866,0.090121384,9.870466915,0,0,0,298,0
0,0.039732225,0.112234112,9.919115862,0,0,0,302,0
0,0.153430089,0.110712262,9.813290649,0,0,0,303,0
0,0.097559912,0.083871168,9.762674766,0,0,0,300,0
0,0.045852248,-0.02806165,9.689342439,0,0,0,303,0
0,-0.002600661,0.054805719,9.806366675,0,0,0,303,0
0,-0.019029896,0.023316193,9.684223409,0,0,0,298,0
0,0.120137362,0.105957167,9.630417903,0,0,0,298,0
0,0.039684767,0.101746862,9.740353075,0,0,0,299,0
0,-0.028442705,0.048754986,9.833008359,0,0,0,301,0
0,-0.066190882,0.020871379,9.991639914,0,0,0,299,0
0,-0.044425835,0.073434439,9.863457659,0,0,0,299,0
0,0.124129041,-0.163973856,9.895963843,0,0,0,301,0
0,0.008703271,0.051300366,9.949474541,0,0,0,300,0
0,0.048393314,0.109975368,9.983061142,0,0,0,300,0
0,-0.056088315,-0.030731596,9.789424003,0,0,0,303,0
0,0.010596915,0.072294791,9.789262991,0,0,0,303,0
0,-0.09693652,0.098028822,9.760055416,0,0,0,301,0
0,0.266388523,0.140174125,9.744565412,0,0,0,300,0
0,-0.027389578,-0.037263682,9.728202288,0,0,0,303,0
0,-0.109335066,-0.021032705,9.873570342,0,0,0,300,0
0,-0.138354905,0.060692918,9.749119057,0,0,0,297,0
0,0.033700192,0.032333153,9.847868753,0,0,0,299,0
0,-0.202563036,0.021155584,9.912889061,0,0,0,299,0
0,-0.111530155,-0.153590391,9.671267174,0,0,0,297,0
0,-0.173459127,-0.024623537,10.0220253,0,0,0,299,0
0,0.170332872,0.098462581,9.944237697,0,0,0,299,0
0,0.000613601,-0.041183561,9.660446731,0,0,0,300,0
0,0.055032693,-0.067279472,9.827365679,0,0,0,301,0
0,0.014226986,0.017986069,9.881317468,0,0,0,299,0
0,-0.192892544,-0.039407844,9.654390579,0,0,0,299,0
0,0.07296406,0.074490844,9.849791967,0,0,0,302,0
0,0.027614551,-0.019915081,9.748597508,0,0,0,303,0
0,-0.210021941,-0.138198964,9.873870057,0,0,0,300,0
0,0.045010523,0.015804231,9.789228406,0,0,0,299,0
0,-0.08143801,0.022751523,9.852171087,0,0,0,295,0
0,0.044698973,-0.008697022,9.715583001,0,0,0,300,0
0,0.053048547,0.15964954,9.678849936,0,0,0,300,0
0,-0.034796254,-0.209616302,9.724753719,0,0,0,298,0
0,0.022263828,0.183470602,9.870529879,0,0,0,301,0
0,-0.27250368,0.142464443,9.820552087,0,0,0,300,0
0,-0.013587539,-0.094096947,9.804347453,0,0,0,298,0
0,0.088568581,-0.006637732,9.855582844,0,0,0,300,0
0,0.000722021,0.060299948,9.929634595,0,0,0,297,0
0,-0.061522819,0.082553041,9.893158198,0,0,0,304,0
0,0.127376123,0.127978159,9.66918185,0,0,0,298,0
0,-0.005482779,-0.093419666,9.678517636,0,0,0,299,0
0,0.001980543,-0.021976053,9.701134285,0,0,0,301,0
0,0.018412243,-0.040001265,9.997522451,0,0,0,298,0
0,-0.023901727,0.05216584,9.747609911,0,0,0,300,0
0,0.055773474,0.103877089,9.709966258,0,0,0,300,0
0,-0.0317036,0.007146365,9.807395899,0,0,0,298,0
0,0.194672811,-0.012374336,9.850335727,0,0,0,298,0
0,0.236307955,0.05667816,9.868403729,0,0,0,299,0
0,-0.030061982,0.062482275,9.661835249,0,0,0,298,0
0,0.006925119,0.16571874,9.915114094,0,0,0,299,0
0,-0.023479282,0.239907147,9.874824872,0,0,0,304,0
0,-0.129632423,0.014350793,9.659114245,0,0,0,302,0
0,0.160658463,0.111029309,9.635438121,0,0,0,300,0
0,-0.181142679,0.042665802,9.74576297,0,0,0,298,0
0,0.053110317,-0.032846915,9.738393335,0,0,0,299,0
0,0.042061253,-0.000121778,9.745201529,0,0,0,299,0
0,0.199949608,-0.072410335,9.912246906,0,0,0,303,0
0,0.087775567,-0.052834674,9.880708965,0,0,0,299,0
0,-0.03949144,0.025318506,9.831494528,0,0,0,299,0
0,-0.043295417,-0.099046636,9.883227767,0,0,0,302,0
0,0.168013496,-0.055878951,9.737266373,0,0,0,301,0
0,-0.081556263,0.170669815,9.698748667,0,0,0,297,0
0,0.025799605,-0.044648023,9.888627682,0,0,0,299,0
0,0.00152596,0.099892681,9.932266223,0,0,0,298,0
0,0.014241452,0.017170517,9.734257786,0,0,0,297,0
0,0.108249022,0.153613766,9.803985069,0,0,0,301,0
0,-0.136909482,-0.269580271,9.772972064,0,0,0,301,0
0,0.08706705,-0.120134311,9.856642265,0,0,0,302,0
0,0.117525482,-0.091655205,9.760641099,0,0,0,296,0
0,0.034398049,0.058206694,9.558627927,0,0,0,301,0
0,-0.036647526,-0.012667436,9.761140763,0,0,0,300,0
0,-0.021647033,-0.176344401,9.769754733,0,0,0,302,0
0,0.170397062,0.037127012,9.82596891,0,0,0,298,0
0,-0.074050918,0.005373,9.734263464,0,0,0,296,0
0,-0.113136399,-0.043339108,9.981218647,0,0,0,294,0
0,0.139830968,0.165865154,9.651947078,0,0,0,305,0
0,0.011809503,0.08068699,9.872099304,0,0,0,302,0
0,0.078615005,-0.042063063,9.784562893,0,0,0,297,0
0,-0.038018036,0.138323588,9.731987107,0,0,0,301,0
0,0.050665884,0.019628088,9.754963659,0,0,0,300,0
0,0.099993843,-0.047007624,9.739318522,0,0,0,300,0
0,0.06754796,0.031191795,9.845516067,0,0,0,301,0
0,-0.099980215,-0.074563229,9.757945901,0,0,0,302,0
0,0.037674012,-0.04941613,9.845093114,0,0,0,300,0
0,0.014888894,-0.059941049,9.857281376,0,0,0,300,0
0,0.014073059,0.04369526,9.72331263,0,0,0,298,0
0,-0.053314345,-0.042519728,9.718323721,0,0,0,296,0
0,-0.097265717,0.086815802,9.906558324,0,0,0,297,0
0,0.111322071,-0.092106024,9.814745424,0,0,0,299,0
0,0.078179761,0.190011229,9.700820573,0,0,0,296,0
0,-0.052714161,0.221720945,9.816593414,0,0,0,298,0
0,0.068859553,0.084479595,9.874885321,0,0,0,300,0
0,-0.016969892,-0.316692415,9.870272698,0,0,0,298,0
0,0.1495927,0.146015976,9.78638544,0,0,0,303,0
0,0.035905498,-0.127142471,9.831934715,0,0,0,298,0
0,-0.050105253,-0.053671598,9.874314414,0,0,0,301,0
0,0.081738265,0.00050893,9.783987628,0,0,0,299,0
0,0.162388504,-0.068833998,9.897386359,0,0,0,297,0
0,-0.079926053,0.115145847,9.834793042,0,0,0,296,0
0,0.118525413,-0.020348335,9.630153704,0,0,0,308,0
0,-0.137220812,0.110058525,9.959680538,0,0,0,301,0
0,-0.097247828,0.066555608,9.840310571,0,0,0,303,0
0,-0.172410844,0.068946463,9.634962489,0,0,0,301,0
0,-0.047826636,-0.14807755,9.692206794,0,0,0,303,0
0,-0.027701954,-0.138214818,9.762391086,0,0,0,299,0
0,-0.00998496,-0.016236325,9.835995629,0,0,0,300,0
0,-0.051711822,0.174464855,9.882691379,0,0,0,299,0
0,0.050762608,-0.014343933,9.650857395,0,0,0,301,0
0,-0.146241512,0.126908634,9.800178416,0,0,0,298,0
0,-0.029260143,-0.247952355,9.854930463,0,0,0,302,0
0,-0.000591654,0.033777768,9.83869537,0,0,0,301,0
0,0.188778469,0.095101846,9.628343645,0,0,0,302,0
0,0.164139619,0.027350236,9.892340061,0,0,0,296,0
0,-0.029870257,0.011970428,9.777423555,0,0,0,303,0
0,-0.082133574,-0.05556084,9.738932951,0,0,0,299,0
0,0.031285128,-0.115012321,9.897784455,0,0,0,302,0
0,0.028496476,-0.098549878,9.843912166,0,0,0,299,0
0,0.010260694,0.048556736,9.636753514,0,0,0,299,0
0,0.05064438,-0.105430915,9.979020153,0,0,0,299,0
0,0.110069339,0.049407615,9.717710098,0,0,0,297,0
0,0.056246359,0.020066382,9.619348358,0,0,0,295,0
0,-0.007110566,-0.019756087,9.713514355,0,0,0,300,0
0,-0.057362182,-0.066186473,9.694676247,0,0,0,299,0
0,0.257540364,-0.012541527,9.782794897,0,0,0,302,0
0,-0.152361115,-0.007627683,9.844513089,0,0,0,299,0
0,0.043776665,0.02314755,9.82628836,0,0,0,298,0
0,0.028409201,-0.05397676,9.745331921,0,0,0,298,0
0,-0.033521655,-0.046914319,9.853676277,0,0,0,303,0
0,0.121329469,0.05796039,9.693902844,0,0,0,299,0
0,-0.002586584,-0.143893063,10.12943959,0,0,0,300,0
0,0.018608662,0.189435359,9.787659283,0,0,0,300,0
0,-0.045889972,-0.046022951,9.893191767,0,0,0,298,0
0,-0.162374887,-0.16746189,9.832378052,0,0,0,300,0
0,-0.039578162,-0.154658263,9.791042974,0,0,0,299,0
0,-0.059606291,0.040460651,9.808047973,0,0,0,295,0
0,0.076950596,-0.080400726,9.707035298,0,0,0,298,0
0,-0.12467811,0.00390082,9.841244211,0,0,0,298,0
0,-0.142823439,-0.068279356,9.824343426,0,0,0,297,0
0,-0.044975894,-0.01242749,9.874566995,0,0,0,301,0
0,-0.182032016,-0.018414341,9.861612546,0,0,0,302,0
0,-0.100156218,0.005108323,9.835533665,0,0,0,302,0
0,0.142351822,0.18733837,9.743358472,0,0,0,297,0
0,0.004810656,0.113423594,9.891577533,0,0,0,301,0
0,-0.076541923,0.144134008,9.930793475,0,0,0,303,0
0,0.12074824,-0.104822406,9.795910523,0,0,0,299,0
0,0.183236556,-0.08275091,9.590180753,0,0,0,299,0
0,0.037646129,0.049434784,9.788110865,0,0,0,302,0
0,-0.086489943,-0.062283851,9.831031259,0,0,0,296,0
0,0.089434928,0.059789829,9.623205074,0,0,0,299,0
0,0.151995557,-0.078956101,9.809148434,0,0,0,301,0
0,-0.063063553,-0.06854407,9.766914005,0,0,0,301,0
0,0.102536381,0.160704209,9.846262593,0,0,0,304,0
0,0.064880826,-0.079891137,9.672681722,0,0,0,301,0
0,-0.00413937,0.064203053,9.64644051,0,0,0,299,0
0,0.058887835,-0.119818241,9.847412246,0,0,0,300,0
0,-0.018939765,0.072300447,9.732962129,0,0,0,299,0
0,0.026232823,0.088761476,9.810763907,0,0,0,302,0
0,0.077979588,0.090543607,9.859477363,0,0,0,301,0
0,0.092684532,0.192893272,9.797985107,0,0,0,300,0
0,-0.134777686,-0.067781876,9.949522594,0,0,0,304,0
0,0.101834739,0.073105069,9.729312435,0,0,0,300,0
0,0.051892518,-0.106320378,9.597352769,0,0,0,300,0
0,0.057617085,-0.147141752,9.874014422,0,0,0,300,0
0,-0.058975384,0.079512069,9.836518292,0,0,0,299,0
0,0.039432624,0.122837916,9.918944908,0,0,0,298,0
0,0.083602646,0.149293195,9.829571661,0,0,0,298,0
0,0.006065737,0.040062825,9.699140822,0,0,0,299,0
0,-0.020808573,-0.064101757,9.879786249,0,0,0,301,0
0,0.026112251,-0.031453249,9.952226887,0,0,0,298,0
0,-0.181548045,0.040331963,9.89280834,0,0,0,296,0
0,0.055615699,0.148039139,9.659712455,0,0,0,299,0
0,0.096060172,-0.143731379,9.892076947,0,0,0,302,0
0,-0.046986064,-0.180199089,9.907128259,0,0,0,301,0
0,0.036160171,-0.09017153,9.511838002,0,0,0,299,0
0,0.040941414,-0.014472199,9.716172446,0,0,0,298,0
0,0.183124329,-0.082784831,9.865960264,0,0,0,301,0
0,-0.036452678,0.020391346,9.8532157,0,0,0,298,0
0,-0.154399163,0.088987836,9.58296707,0,0,0,301,0
0,0.021096968,-0.018798077,9.968154213,0,0,0,298,0
0,-0.311955993,-0.006936959,9.953893878,0,0,0,302,0
0,-0.11413132,0.099147203,9.757850135,0,0,0,299,0
0,0.000211886,0.117288077,9.961788854,0,0,0,302,0
0,0.016082357,0.078576348,9.885203342,0,0,0,301,0
0,-0.044423162,0.004375072,9.801863925,0,0,0,298,0
0,-0.143074725,0.010070708,9.711088628,0,0,0,298,0
0,-0.061196834,-0.042856944,9.859629979,0,0,0,296,0
0,0.077834479,0.07113198,9.817254035,0,0,0,296,0
0,-0.161987399,0.014493877,9.548429713,0,0,0,302,0
0,-0.005096165,-0.125546594,9.840271987,0,0,0,301,0
0,0.17784853,0.16602787,9.724457904,0,0,0,302,0
0,-0.183541257,0.139995298,9.838831861,0,0,0,300,0
0,-0.126347851,-0.028631014,9.865235313,0,0,0,295,0
0,0.069762111,-0.044325457,9.612889122,0,0,0,299,0
0,-0.015780853,-0.003846074,9.729069608,0,0,0,301,0
0,0.021360554,0.176465387,9.830924762,0,0,0,300,0
0,0.055043104,0.041135572,9.734908839,0,0,0,305,0
0,0.00557035,-0.161090328,9.812384484,0,0,0,294,0
0,0.043351423,0.194428169,9.836282813,0,0,0,299,0
0,0.012430328,-0.162234664,9.972230582,0,0,0,299,0
0,0.008241915,-0.213880478,9.77354402,0,0,0,299,0
0,0.105868693,0.054733239,9.86013539,0,0,0,296,0
0,0.058883212,0.019622724,9.805605555,0,0,0,298,0
0,0.011400289,0.019132574,9.837584353,0,0,0,299,0
0,0.061354433,0.168886615,9.836926523,0,0,0,301,0
0,0.117950551,-0.12860521,9.754531738,0,0,0,300,0
0,-0.02409067,-0.078626004,9.631635881,0,0,0,302,0
0,-0.017517933,-0.071210771,9.637386045,0,0,0,301,0
0,-0.048173477,-0.069012771,9.891684751,0,0,0,301,0
0,-0.08593848,0.068731715,9.743305175,0,0,0,301,0
0,0.135485935,-0.106082244,9.751293844,0,0,0,298,0
0,-0.069727001,0.1232283,9.986349654,0,0,0,303,0
0,0.081216076,0.094771575,9.70106055,0,0,0,298,0
0,-0.076041731,-0.20811259,9.805047022,0,0,0,299,0
0,-0.003648761,-0.060189323,9.909933273,0,0,0,302,0
0,-0.009119084,0.120480681,9.603437964,0,0,0,299,0
0,0.182234797,-0.089646956,9.85773365,0,0,0,304,0
0,0.004349484,-0.064255586,9.73803448,0,0,0,300,0
0,0.080377873,0.07297338,9.792475983,0,0,0,299,0
0,0.074522138,0.032046853,10.00170753,0,0,0,296,0
0,-0.042353346,-0.023932544,9.86881692,0,0,0,300,0
0,-0.015292052,-0.010209239,9.80127902,0,0,0,301,0
0,0.119796673,-0.000931199,9.85057114,0,0,0,297,0
0,-0.02820041,-0.015323612,9.909452737,0,0,0,302,0
0,0.137103394,0.14507819,9.757954987,0,0,0,301,0
0,0.05039402,0.082765417,9.87532391,0,0,0,298,0
0,-0.04339018,-0.021053497,9.788940762,0,0,0,297,0
0,-0.019005945,0.011890473,9.741310275,0,0,0,298,0
0,0.042082228,-0.052147679,9.876013814,0,0,0,301,0
0,0.00381809,-0.123903437,9.807540475,0,0,0,299,0
0,-0.058205338,-0.03070506,9.732994891,0,0,0,301,0
0,-0.02323718,-0.039402282,9.770828456,0,0,0,298,0
0,0.015014211,-0.028890999,9.832265455,0,0,0,300,0
0,0.117341958,0.153259863,9.847014097,0,0,0,300,0
0,0.151152755,-0.129736388,9.83847554,0,0,0,297,0
0,0.101026411,-0.023359244,9.875335466,0,0,0,300,0
0,0.052023604,0.041991418,9.756855734,0,0,0,299,0
0,0.058935098,0.040234943,9.829808437,0,0,0,300,0
0,0.03249212,0.228836089,9.771415931,0,0,0,301,0
0,0.065779525,-0.053383945,9.756522361,0,0,0,303,0
0,0.037684317,-0.155659031,9.747426826,0,0,0,303,0
0,0.020470743,-0.119530257,9.898070222,0,0,0,301,0
0,-0.024102217,0.11424633,9.96103557,0,0,0,303,0
0,-0.104378805,-0.198341971,9.92367814,0,0,0,296,0
0,0.25722805,-0.016318692,9.90537437,0,0,0,299,0
0,-0.033126333,-0.051782386,9.806648677,0,0,0,298,0
0,0.072674407,0.119403699,9.782640671,0,0,0,302,0
0,0.051575702,-0.070454165,9.773124562,0,0,0,297,0
0,-0.124790673,-0.114505167,9.841501507,0,0,0,298,0
0,0.209124658,-0.083594991,9.93969017,0,0,0,298,0
0,-0.119799604,-0.069861679,10.03058349,0,0,0,297,0
0,-0.174124559,0.078536233,9.713551926,0,0,0,300,0
0,0.071827442,0.133641769,9.689679555,0,0,0,298,0
0,-0.029233081,0.003084275,9.878269598,0,0,0,299,0
0,0.032999875,0.067006932,9.806737645,0,0,0,299,0
0,-0.009213086,0.134248733,9.953468177,0,0,0,301,0
0,-0.088795218,-0.140213123,9.884575146,0,0,0,299,0
0,0.0485724,0.013921518,10.02187992,0,0,0,299,0
0,0.059592614,-0.113214406,9.609633173,0,0,0,299,0
0,-0.190346834,0.066143245,9.953219661,0,0,0,301,0
0,-0.061585144,-0.015826137,9.914673327,0,0,0,297,0
0,-0.074867617,-0.086448593,9.846036799,0,0,0,301,0
0,0.140147541,-0.073261082,9.858652647,0,0,0,298,0
0,-0.059251344,-0.026056218,9.858156326,0,0,0,300,0
0,0.027904633,-0.021324003,9.755335877,0,0,0,302,0
0,0.00781758,-0.022092672,9.7364772,0,0,0,299,0
0,-0.114121794,0.035641407,9.780280137,0,0,0,299,0
0,-0.075843562,0.003403162,9.777033493,0,0,0,300,0
0,-0.007231036,0.157501409,9.929334992,0,0,0,302,0
0,-0.025034297,-0.080255607,9.828480214,0,0,0,300,0
0,-0.00884298,-0.062440095,9.702424962,0,0,0,301,0
0,0.133969483,-0.006485685,9.808193736,0,0,0,301,0
0,-0.138978752,-0.048947114,9.886744334,0,0,0,299,0
0,-0.082705264,-0.114199583,9.907019741,0,0,0,300,0
0,-0.015219579,0.138618592,9.960880259,0,0,0,303,0
0,0.055162703,0.052270105,9.783392993,0,0,0,299,0
0,0.125350269,0.064984219,9.857182919,0,0,0,298,0
0,-0.088122588,-0.108240768,9.821875933,0,0,0,299,0
0,0.141576904,0.065211264,9.637853527,0,0,0,299,0
0,0.129542215,-0.078219626,9.758263832,0,0,0,300,0
0,0.183071919,0.042841066,9.787785725,0,0,0,300,0
0,0.125918524,0.166732423,9.84475445,0,0,0,302,0
0,0.068643851,0.062148765,9.914657411,0,0,0,298,0
0,-0.012616733,0.145014288,9.785639002,0,0,0,299,0
0,-0.105590208,0.063508961,9.905364604,0,0,0,300,0
0,-0.007142416,0.087897928,9.846562432,0,0,0,296,0
0,0.106341356,0.085241281,9.820381586,0,0,0,298,0
0,-0.136439248,0.063598063,9.768627598,0,0,0,299,0
0,0.103936151,0.02321725,9.723357437,0,0,0,297,0
0,0.054482829,-0.187232447,9.694133062,0,0,0,298,0
0,-0.019629335,-0.129548808,9.951054738,0,0,0,303,0
0,-0.155967008,-0.121203312,9.836869042,0,0,0,302,0
0,0.007739487,0.046688922,9.837850463,0,0,0,296,0
0,0.100656907,-0.007702855,9.798731536,0,0,0,299,0
0,0.073692519,-0.108209826,9.766478626,0,0,0,300,0
0,-0.050165649,0.014525887,9.74391098,0,0,0,301,0
0,0.113018594,0.030839441,9.884832954,0,0,0,300,0
0,-0.088310918,0.034066757,9.825203802,0,0,0,301,0
0,0.179541816,0.101225121,9.741496447,0,0,0,300,0
0,-0.066650367,0.081812022,9.677354243,0,0,0,299,0
0,-0.100506518,0.038172849,9.646222728,0,0,0,299,0
0,0.115710973,0.086904326,9.726462589,0,0,0,296,0
0,0.136053184,-0.077506614,9.830909524,0,0,0,299,0
0,-0.07767858,-0.045333238,9.765290916,0,0,0,299,0
0,0.051929044,-0.039819839,9.613074755,0,0,0,299,0
0,0.056790061,0.078039769,9.758581848,0,0,0,303,0
0,-0.010089396,0.231370508,9.716695542,0,0,0,301,0
0,0.163258286,0.140475035,9.856197804,0,0,0,298,0
0,-0.087675434,-0.020910754,9.922935559,0,0,0,303,0
0,0.130540174,-0.166633895,9.877154948,0,0,0,299,0
0,-0.060017726,0.119116685,9.778249972,0,0,0,297,0
0,0.001653966,-0.079136625,9.757461709,0,0,0,298,0
0,0.141924956,-0.107012338,9.76876862,0,0,0,298,0
0,-0.159912403,0.009994841,9.8207391,0,0,0,300,0
0,-0.00956772,-0.148170266,9.846898484,0,0,0,299,0
0,-0.048396415,0.169286381,9.772411982,0,0,0,295,0
0,0.086539812,-0.010366451,9.786331098,0,0,0,301,0
0,-0.087338339,-0.063954504,9.825679634,0,0,0,299,0
0,0.022430348,-0.087598086,9.605303682,0,0,0,297,0
0,-0.138683651,0.214933405,9.70792576,0,0,0,301,0
0,-0.007109452,0.005828655,9.864474266,0,0,0,299,0
0,-0.151025297,-0.05939736,9.836297047,0,0,0,298,0
0,-0.232398293,0.017837362,9.65338135,0,0,0,299,0
0,0.054546953,0.034746299,9.898631442,0,0,0,298,0
0,0.017711542,0.059349221,9.842978802,0,0,0,300,0
0,0.122156582,0.031762664,9.903520761,0,0,0,300,0
0,0.099066202,0.036396158,9.812378773,0,0,0,300,0
0,-0.039291286,0.076219499,9.74944307,0,0,0,296,0
0,-0.166120213,-0.03394152,10.06287418,0,0,0,302,0
0,-0.010291051,0.045640737,9.810548316,0,0,0,294,0
0,-0.055192657,0.092512194,9.829924565,0,0,0,301,0
0,-0.101486325,0.057692967,9.833971546,0,0,0,299,0
0,0.075088816,-0.130009833,9.789268182,0,0,0,301,0
0,0.245054608,0.14603378,9.501886981,0,0,0,300,0
0,-0.098975737,-0.031410389,9.699174377,0,0,0,297,0
0,-0.041055134,0.100057185,9.917899768,0,0,0,298,0
0,0.122665089,-0.025629082,9.84443956,0,0,0,300,0
0,-0.027079675,0.135121524,9.831234282,0,0,0,302,0
0,0.138613458,0.027844513,9.704996657,0,0,0,301,0
0,-1.81E-05,0.011719884,9.786880851,0,0,0,302,0
0,-0.012004312,0.153257733,9.754900253,0,0,0,298,0
0,-0.111742791,-0.061687455,9.854659082,0,0,0,299,0
0,-0.029210439,0.093247393,9.7617896,0,0,0,299,0
0,0.072548905,-0.11720655,9.85778877,0,0,0,298,0
0,0.014374914,-0.010892637,9.873359683,0,0,0,300,0
0,-0.11213703,-0.018705072,9.823621514,0,0,0,297,0
0,0.025796511,0.073179523,9.710506327,0,0,0,297,0
0,0.042429442,-0.096571081,9.666646326,0,0,0,296,0
0,0.060657307,-0.103783868,9.794404853,0,0,0,299,0
0,-0.056692763,-0.228719079,9.749512109,0,0,0,301,0
0,0.196776568,-0.081064194,9.652419293,0,0,0,301,0
0,0.034963585,0.053175257,9.82565745,0,0,0,299,0
0,-0.004507593,-0.080359412,9.722504998,0,0,0,301,0
0,0.043868482,-0.106611566,9.79961497,0,0,0,299,0
0,0.038252144,-0.068810352,9.854080706,0,0,0,298,0
0,0.060831904,0.032270142,9.883077482,0,0,0,300,0
0,0.019168191,0.138083003,9.627615994,0,0,0,300,0
0,0.115901456,-0.026959143,9.922419443,0,0,0,298,0
0,-0.019818586,0.104282556,9.831750925,0,0,0,299,0
0,0.051684156,0.159025287,9.800235107,0,0,0,303,0
0,-0.093816296,0.10493863,9.887102706,0,0,0,299,0
0,0.028065639,-0.027540093,9.782310567,0,0,0,301,0
0,-0.027916351,-0.066124513,9.688211972,0,0,0,299,0
0,-0.034103284,-0.043881179,10.02167824,0,0,0,301,0
0,0.195077197,0.092640012,9.82864515,0,0,0,299,0
0,0.193485158,0.048407459,9.812457848,0,0,0,299,0
0,0.044765619,0.014243436,9.720358628,0,0,0,301,0
0,-0.040965773,-0.027571697,9.584043481,0,0,0,299,0
0,-0.0466418,-0.03608953,9.907010669,0,0,0,299,0
0,0.039509567,-0.105179527,9.621539596,0,0,0,302,0
0,-0.168940564,0.049171432,9.76328519,0,0,0,300,0
0,0.037078175,0.004296366,9.771974773,0,0,0,298,0
0,0.048061429,0.006295335,9.960508353,0,0,0,300,0
0,-0.046896937,0.065430953,9.85965573,0,0,0,297,0
0,0.042170748,-0.081040138,9.927890036,0,0,0,299,0
0,-0.041981152,0.00738628,9.795582407,0,0,0,301,0
0,-0.126711703,-0.124771502,9.826749861,0,0,0,300,0
0,0.065075731,-0.053129464,9.748545839,0,0,0,299,0
0,0.13414335,-0.064420019,9.59438516,0,0,0,299,0
0,-0.074196075,-0.069476361,9.846471754,0,0,0,299,0
0,-0.000976921,-0.046040106,9.860973174,0,0,0,301,0
0,-0.039215433,-0.085695604,9.858273911,0,0,0,302,0
0,-0.003364854,0.133085409,9.924125571,0,0,0,302,0
0,-0.176500119,0.017655156,9.804178749,0,0,0,300,0
0,-0.132434325,-0.01654546,9.975924585,0,0,0,298,0
0,-0.195567875,0.125058461,9.939548207,0,0,0,298,0
0,0.080010649,0.146858164,9.797181794,0,0,0,301,0
0,-0.061667408,-0.108148334,9.931875553,0,0,0,299,0
0,0.180376582,0.005698025,9.909166096,0,0,0,298,0
0,-0.017676837,-0.016180311,9.864859763,0,0,0,300,0
0,-0.02680619,0.048039788,9.911541319,0,0,0,302,0
0,0.084636324,-0.087725998,9.745975524,0,0,0,301,0
0,-0.156247841,-0.083684563,9.845376343,0,0,0,298,0
0,0.138616658,0.051280579,9.838895338,0,0,0,297,0
0,-0.012600461,-0.169198639,9.841637559,0,0,0,301,0
0,-0.060389921,-0.005371208,9.783730585,0,0,0,297,0
0,-0.030474604,0.014927194,9.809482206,0,0,0,297,0
0,-0.026052098,-0.113737703,9.64740661,0,0,0,300,0
0,0.109388698,-0.073737924,9.666506113,0,0,0,302,0
0,0.079773676,0.053137887,9.793515006,0,0,0,298,0
0,-0.030317988,-0.115973425,9.768623721,0,0,0,303,0
0,-0.091256384,0.058624187,9.810002006,0,0,0,298,0
0,-0.045505925,-0.044518034,9.745671783,0,0,0,298,0
0,0.053379708,-0.024821914,9.86074947,0,0,0,300,0
0,0.118365853,-0.024758715,9.811724069,0,0,0,300,0
0,-0.01873328,0.058149168,9.706239665,0,0,0,300,0
0,0.015604517,-0.026759147,9.71712719,0,0,0,300,0
0,-0.060898859,0.164462914,9.8253404,0,0,0,300,0
0,-0.114120535,-0.079123551,9.645732842,0,0,0,299,0
0,0.035582351,0.017866128,9.826243087,0,0,0,302,0
0,0.006427042,-0.013550613,9.669149785,0,0,0,302,0
0,0.082798808,0.03128925,9.887482508,0,0,0,300,0
0,-0.044933459,-0.075661569,9.743057651,0,0,0,300,0
0,0.201055813,0.093162185,9.820849789,0,0,0,301,0
0,-0.112652811,0.116058806,9.8696276,0,0,0,304,0
0,-0.043538917,0.031646127,9.804494334,0,0,0,299,0
0,0.067024338,0.078259943,9.726705136,0,0,0,301,0
0,-0.147697271,-0.086315976,9.688854219,0,0,0,298,0
0,0.033103906,-0.099830331,9.750766397,0,0,0,302,0
0,0.057615253,0.010578317,9.946988257,0,0,0,298,0
0,0.004928373,-0.067296488,9.726938819,0,0,0,297,0
0,-0.079320317,-0.045145452,9.889990967,0,0,0,300,0
0,0.016509247,-0.15176957,9.799860202,0,0,0,299,0
0,0.194763153,0.038867608,9.728753794,0,0,0,296,0
0,0.045760734,0.059992389,9.5743665,0,0,0,298,0
0,-0.111926888,-0.044514702,9.937473429,0,0,0,301,0
0,-0.115806831,0.062487958,9.797608816,0,0,0,296,0
0,0.025165579,-0.03384961,9.92428467,0,0,0,299,0
0,0.048056822,-0.08484849,9.703181516,0,0,0,298,0
0,0.067246801,-0.00646106,9.932621026,0,0,0,300,0
0,0.088158887,0.006526078,9.886168739,0,0,0,300,0
0,0.052470848,0.125771915,9.900969616,0,0,0,297,0
0,-0.029362057,-0.1664874,9.784031863,0,0,0,299,0
0,0.0626543,0.044699542,9.893155643,0,0,0,302,0
0,-0.060605691,-0.123306736,9.817034036,0,0,0,304,0
0,0.061819367,0.050453918,9.826196441,0,0,0,305,0
0,-0.00084971,0.029097403,9.851751698,0,0,0,300,0
0,0.104087333,0.15219763,9.78878924,0,0,0,301,0
0,-0.063969602,0.012779893,9.788494098,0,0,0,297,0
0,0.007825549,0.012885904,9.765877387,0,0,0,300,0
0,0.237352324,-0.00744048,9.678154951,0,0,0,297,0
0,0.018006309,-0.09243268,10.03301705,0,0,0,300,0
0,0.04617824,-0.073169762,9.747435888,0,0,0,302,0
0,-0.02809152,0.007486394,9.737680214,0,0,0,304,0
0,-0.222290278,-0.060103914,9.785379467,0,0,0,298,0
0,-0.077063498,0.072057756,9.86699664,0,0,0,300,0
0,0.06838276,0.018859395,9.882843177,0,0,0,299,0
0,0.018747011,0.117489352,9.942494816,0,0,0,299,0
0,0.042798823,0.238302646,9.763612154,0,0,0,302,0
0,-0.002872268,0.005790829,9.970927728,0,0,0,299,0
0,-0.025521095,0.024745399,9.908791865,0,0,0,298,0
0,0.046362502,-0.026483267,9.878198099,0,0,0,300,0
0,0.039053595,0.040608578,9.591743636,0,0,0,299,0
0,0.025525919,-0.127440024,9.802065503,0,0,0,301,0
0,0.028156792,0.006318701,9.755056944,0,0,0,296,0
0,-0.131200556,0.014929865,9.915910538,0,0,0,299,0
0,-0.028464252,0.100090313,9.724076169,0,0,0,301,0
0,0.096292634,0.080470428,9.783210258,0,0,0,300,0
0,0.031722498,0.015662924,9.75917597,0,0,0,300,0
0,0.196234,-0.055657682,9.688887578,0,0,0,297,0
0,-0.107683424,-0.121598037,9.928347062,0,0,0,298,0
0,0.078244819,0.048444599,9.684111917,0,0,0,298,0
0,0.016292412,-0.18757614,9.794822037,0,0,0,296,0
0,-0.026371155,0.144467456,9.818325093,0,0,0,300,0
0,0.139572497,-0.015990465,9.829286406,0,0,0,299,0
0,0.155217009,0.164332289,9.761265905,0,0,0,299,0
0,0.124623395,-0.065211525,9.797013074,0,0,0,302,0
0,0.188360957,0.045773523,9.616794526,0,0,0,299,0
0,0.015329664,-0.056836303,9.962939098,0,0,0,300,0
0,-0.123028578,0.052703748,9.682955827,0,0,0,299,0
0,0.063930895,0.066916827,9.928230655,0,0,0,300,0
0,-0.315177428,0.134995608,9.772044088,0,0,0,300,0
0,-0.063267688,0.005177351,9.710109768,0,0,0,299,0
0,0.198683395,-0.022875615,9.881697192,0,0,0,300,0
0,0.078460719,0.030136973,9.818015022,0,0,0,302,0
0,-0.056710896,-0.0747499,9.811368419,0,0,0,300,0
0,0.111656857,0.071866324,9.959542215,0,0,0,300,0
0,0.062889207,0.011886264,9.833001609,0,0,0,300,0
0,0.017849556,0.119303966,9.887504129,0,0,0,300,0
0,-0.046330005,-0.056613072,9.822963142,0,0,0,301,0
0,0.092623993,-0.048087113,9.886426772,0,0,0,301,0
0,0.006115842,-0.185013546,9.716712611,0,0,0,299,0
0,-0.069874546,-0.177153073,9.785764646,0,0,0,301,0
0,0.059857761,-0.069806552,9.821686719,0,0,0,299,0
0,0.010175547,0.123307502,9.837268074,0,0,0,298,0
0,-0.033166387,0.088296734,9.861652131,0,0,0,301,0
0,-0.208293975,-0.176858835,9.943027531,0,0,0,300,0
0,0.001585092,-0.127849897,9.811701385,0,0,0,299,0
0,0.01389729,0.140131324,9.873577691,0,0,0,302,0
0,0.056500731,0.11853111,9.950456092,0,0,0,300,0
0,-0.013795789,-0.22069973,9.986327967,0,0,0,301,0
0,-0.218749478,0.181725252,9.739794092,0,0,0,298,0
0,-0.115490518,-0.057661354,9.634656514,0,0,0,300,0
0,-0.048370638,0.035838825,9.845402784,0,0,0,300,0
0,-0.173217311,0.134185063,9.799918927,0,0,0,301,0
0,0.011270128,-0.23897891,9.728882423,0,0,0,298,0
0,0.096621909,-0.158304363,9.720534462,0,0,0,302,0
0,0.128722394,-0.009254455,9.724292685,0,0,0,300,0
0,0.165715809,-0.085562784,9.798833443,0,0,0,300,0
0,0.01544617,0.024943436,9.879959615,0,0,0,301,0
0,-0.06145039,0.08963082,9.819984891,0,0,0,300,0
0,0.024412055,0.027528919,9.853333468,0,0,0,300,0
0,-0.08704624,-0.076953527,9.63911168,0,0,0,298,0
0,0.02679277,0.071932341,10.04577676,0,0,0,300,0
0,0.098103298,0.123864944,9.829570425,0,0,0,301,0
0,-0.163009957,0.057545865,9.543142125,0,0,0,302,0
0,-0.148353281,0.0142759,9.636845075,0,0,0,301,0
0,0.012792895,0.238565673,9.832893682,0,0,0,305,0
0,-0.062458119,-0.139922113,9.743609735,0,0,0,303,0
0,-0.106518616,-0.074054012,9.861301685,0,0,0,300,0
0,0.007427736,0.101201929,9.882699856,0,0,0,299,0
0,-0.254322699,0.066878395,9.951887053,0,0,0,297,0
0,-0.013341589,0.036631068,9.595750626,0,0,0,299,0
0,0.093603275,0.084653404,9.738555915,0,0,0,302,0
0,-0.022113026,-0.012653174,9.917751092,0,0,0,304,0
0,0.009435806,0.089253342,9.838219406,0,0,0,298,0
0,0.083839895,-0.260399503,9.891983523,0,0,0,301,0
0,-0.088252875,0.000142615,9.702843673,0,0,0,304,0
0,0.088881245,-0.00563416,9.851248369,0,0,0,299,0
0,0.022567791,0.004661376,9.864927715,0,0,0,301,0
0,0.046759374,0.079924008,9.798206167,0,0,0,301,0
0,0.109238174,0.012633904,9.954612138,0,0,0,299,0
0,0.0574907,-0.046659127,9.766849047,0,0,0,301,0
0,-0.045167673,0.075607471,9.66635913,0,0,0,302,0
0,0.062934004,0.11956004,9.762670342,0,0,0,299,0
0,-0.136988392,0.061577424,9.781901811,0,0,0,300,0
0,0.117318289,-0.185988275,9.687617074,0,0,0,298,0
0,0.018664473,-0.15401754,9.613341473,0,0,0,298,0
0,0.168140764,-0.038657534,9.796676739,0,0,0,296,0
0,0.009164472,0.106770249,9.709612647,0,0,0,299,0
0,0.04325317,0.061911662,9.784848474,0,0,0,299,0
0,-0.089809202,0.097829057,9.991303004,0,0,0,297,0
0,-0.092156513,0.143357337,9.666703767,0,0,0,303,0
0,-0.140301406,0.038488113,9.646479883,0,0,0,298,0
0,0.042969627,-0.142308127,9.610525764,0,0,0,299,0
0,0.065343201,0.084665984,9.720801237,0,0,0,300,0
0,-0.017159125,-0.045274219,9.929804088,0,0,0,299,0
0,0.112383138,-0.080005108,9.555817157,0,0,0,296,0
0,0.011742905,-0.152867448,9.789131871,0,0,0,300,0
0,-0.005290326,-0.095507624,9.859114321,0,0,0,299,0
0,0.007055957,0.046875753,9.887309611,0,0,0,299,0
0,0.14335607,-0.09408226,9.816081162,0,0,0,303,0
0,0.095863457,-0.145107554,9.854311372,0,0,0,298,0
0,0.187924382,-0.054524074,9.819438024,0,0,0,299,0
0,0.025503114,-0.104388684,9.6525885,0,0,0,296,0
0,-0.040736605,-0.0685112,9.806460206,0,0,0,295,0
0,0.008722762,0.003289022,9.964003113,0,0,0,295,0
0,0.001919925,-0.061434632,9.688401739,0,0,0,297,0
0,-0.035155952,-0.139328148,9.744953867,0,0,0,300,0
0,0.052613059,0.037611601,9.805146956,0,0,0,303,0
0,-0.055092917,-0.171676794,9.882876187,0,0,0,301,0
0,-0.070745383,-0.061470733,9.800975967,0,0,0,301,0
0,0.023695237,-0.038731014,9.76688142,0,0,0,301,0
0,-0.138221164,-0.044903021,9.866941129,0,0,0,300,0
0,0.000721621,-0.135345822,9.813587139,0,0,0,298,0
0,-0.11340339,0.141330107,9.742474754,0,0,0,302,0
0,-0.013806137,-0.126606007,9.907038296,0,0,0,299,0
0,0.193285388,0.074384851,9.759794271,0,0,0,301,0
0,0.069084099,0.043749751,9.698793527,0,0,0,300,0
0,0.012723026,0.143002244,9.858380378,0,0,0,297,0
0,-0.043279693,0.013155217,9.649986889,0,0,0,297,0
0,0.043302524,0.028197418,9.747925596,0,0,0,299,0
0,0.075486332,-0.080743686,9.801363487,0,0,0,300,0
0,0.325419989,-0.136491734,9.724915765,0,0,0,300,0
0,-0.025440339,-0.01315645,9.90857794,0,0,0,299,0
0,-0.002062011,0.03820461,9.926285768,0,0,0,298,0
0,0.061500468,0.056399099,9.698834315,0,0,0,296,0
0,-0.000732209,0.019148616,9.935412448,0,0,0,298,0
0,-0.163086848,0.218115235,9.725754283,0,0,0,298,0
0,-0.016000772,-0.069121789,9.57770416,0,0,0,301,0
0,0.026162021,-0.07345565,9.835082804,0,0,0,300,0
0,0.019113665,0.060217807,9.660829702,0,0,0,301,0
0,0.092397466,0.040963223,9.883519872,0,0,0,301,0
0,-0.019713688,0.087588208,9.918135332,0,0,0,300,0
0,0.010276607,-0.075756612,9.873231439,0,0,0,303,0
0,-0.180755181,-0.040740508,9.697695171,0,0,0,300,0
0,0.017007878,-0.125771873,9.643014101,0,0,0,297,0
0,0.046092677,0.004506365,9.760973308,0,0,0,299,0
0,-0.157535156,0.197432083,9.87755518,0,0,0,303,0
0,0.272376177,-0.04405893,9.877815956,0,0,0,298,0
0,0.18721416,0.015300805,9.848339181,0,0,0,301,0
0,-0.01938106,-0.112141844,9.673717608,0,0,0,304,0
0,0.183445056,-0.023523436,9.635632091,0,0,0,299,0
0,0.124485378,0.040312384,9.71718299,0,0,0,298,0
0,0.106684908,-0.101494499,9.881776683,0,0,0,299,0
0,0.08839377,0.053779074,9.61466976,0,0,0,300,0
0,-0.099330483,-0.141721392,9.725453176,0,0,0,301,0
0,-0.016911913,-0.22358848,9.735701114,0,0,0,303,0
0,-0.042981797,0.115135522,9.765243593,0,0,0,299,0
0,0.067087133,0.047278943,9.639004224,0,0,0,301,0
0,-0.130590611,-0.036254627,9.75297147,0,0,0,302,0
0,0.049191459,-0.094834152,9.741775314,0,0,0,297,0
0,-0.253253428,0.074362584,9.812119907,0,0,0,299,0
0,-0.087770704,-0.09952008,9.809414301,0,0,0,299,0
0,0.02444393,-0.146237728,10.10532113,0,0,0,301,0
0,0.036450791,0.046257706,9.757328211,0,0,0,301,0
0,0.011678783,-0.065582107,9.701283366,0,0,0,300,0
0,-0.013107502,-0.008002542,9.805891712,0,0,0,299,0
0,0.124933289,-0.166655593,9.746575162,0,0,0,302,0
0,0.06210133,0.054060973,9.688007939,0,0,0,301,0
0,-0.058758538,-0.130215737,9.930580519,0,0,0,298,0
0,0.041611092,0.009157568,9.908345188,0,0,0,301,0
0,-0.127407465,0.132862338,9.671179749,0,0,0,302,0
0,0.114677181,-0.044178994,9.629814844,0,0,0,297,0
0,0.058833928,-0.098813772,9.79284076,0,0,0,306,0
0,-0.002538555,0.102509714,9.736428868,0,0,0,300,0
0,-0.149720954,-0.104718436,9.696113042,0,0,0,298,0
0,0.149801455,0.074191666,9.893204373,0,0,0,300,0
0,-0.026634183,0.078710195,9.746299012,0,0,0,299,0
0,-0.039163293,-0.021762947,9.835811126,0,0,0,299,0
0,0.116997025,-0.018651516,9.667926367,0,0,0,299,0
0,-0.114551245,-0.007748179,9.77492482,0,0,0,296,0
0,-0.168894547,-0.075145368,9.893811234,0,0,0,299,0
0,0.029197088,0.109970002,9.767996589,0,0,0,302,0
0,-0.093931588,-0.05394526,9.896394651,0,0,0,300,0
0,0.088230723,-0.107278458,9.686109469,0,0,0,301,0
0,-0.06759777,-0.066717934,9.953131808,0,0,0,298,0
0,0.115054478,0.187046292,9.689557909,0,0,0,301,0
0,-0.073660047,-0.048446707,9.834183573,0,0,0,299,0
0,-0.031344673,0.106632764,9.764434559,0,0,0,299,0
0,-0.045752814,-0.062852904,9.913434383,0,0,0,299,0
0,-0.051351599,-0.157635993,9.934985469,0,0,0,300,0
0,0.012484771,-0.011268108,9.895260557,0,0,0,298,0
0,-0.068852011,0.077939281,9.887021929,0,0,0,301,0
0,0.077490915,-0.002173324,9.648136053,0,0,0,297,0
0,-0.046208363,-0.06444878,9.693643382,0,0,0,300,0
0,-0.082468047,0.053137661,9.82584475,0,0,0,300,0
0,-0.021330377,0.067421684,9.812350947,0,0,0,296,0
0,0.167016843,0.099729823,9.792951549,0,0,0,299,0
0,0.018395005,-0.133112196,9.781990369,0,0,0,301,0
0,-0.102402999,0.102786462,9.956750543,0,0,0,301,0
0,0.016284954,-0.065704463,9.905541524,0,0,0,302,0
0,-0.010405246,0.055280515,9.958343653,0,0,0,298,0
0,0.063509655,-0.013745643,9.699875156,0,0,0,300,0
0,0.255954891,-0.04303492,9.887168241,0,0,0,298,0
0,-0.111963984,0.076690437,9.859220844,0,0,0,304,0
0,0.15672755,-0.168176171,9.787317399,0,0,0,301,0
0,-0.032935122,0.084336528,9.716714256,0,0,0,301,0
0,0.124026542,-0.025778207,9.707015531,0,0,0,300,0
0,-0.001715365,0.053393486,9.87351484,0,0,0,297,0
0,0.059140652,0.028114564,9.709282507,0,0,0,298,0
0,-0.112238377,0.077506877,9.728031613,0,0,0,300,0
0,0.032197003,0.135225009,9.929283705,0,0,0,299,0
0,-0.093639963,0.107144321,9.707447587,0,0,0,297,0
0,-0.155292247,0.048650833,9.816034725,0,0,0,300,0
0,-0.260802036,-0.113124118,9.834694739,0,0,0,301,0
0,-0.044267478,0.217076304,9.691147497,0,0,0,300,0
0,-0.087962878,0.127635154,9.729538231,0,0,0,300,0
0,-0.09944235,0.074348565,9.665400996,0,0,0,299,0
0,-0.189453098,-0.095105054,9.845263701,0,0,0,302,0
0,0.182197863,-0.070899604,9.794196171,0,0,0,302,0
0,-0.106910549,0.060037457,9.682650279,0,0,0,301,0
0,-0.087896031,0.04180251,9.816074773,0,0,0,301,0
0,0.278776835,0.076008934,9.80628194,0,0,0,300,0
0,0.061882359,-0.006266597,9.894230146,0,0,0,298,0
0,0.1066639,0.01177982,9.640230776,0,0,0,299,0
0,0.011999341,-0.033172206,9.647907597,0,0,0,300,0
0,-0.000387585,0.038691423,9.914101463,0,0,0,303,0
0,0.215814603,0.144241994,9.869756686,0,0,0,301,0
0,-0.087770151,0.035776698,9.782559788,0,0,0,299,0
0,0.032795727,0.032588972,9.688939207,0,0,0,304,0
0,0.010073674,-0.175882185,9.747971861,0,0,0,297,0
0,-0.103446978,0.122601695,9.950569414,0,0,0,298,0
0,-0.049413077,-0.034630847,9.931461923,0,0,0,300,0
0,-0.109178806,0.071223161,9.607246991,0,0,0,299,0
0,0.003272605,0.045895031,9.681870247,0,0,0,299,0
0,0.010225764,-0.194510209,9.54147815,0,0,0,300,0
0,-0.01220791,0.011834052,9.792297703,0,0,0,298,0
0,0.06393687,-0.026533417,9.765136187,0,0,0,299,0
0,-0.035944358,-0.026118099,9.799971391,0,0,0,297,0
0,0.182994292,0.072474325,9.594012252,0,0,0,299,0
0,-0.043187106,0.101619082,9.80703124,0,0,0,304,0
0,-0.190789105,0.085505942,9.859499432,0,0,0,298,0
0,-0.06245029,-0.07826008,9.708627413,0,0,0,300,0
0,-0.145872764,-0.071108206,9.71428403,0,0,0,299,0
0,-0.008254675,-0.078039269,9.714820537,0,0,0,297,0
0,-0.078694708,-0.117098861,9.88704702,0,0,0,295,0
0,0.18491487,-0.092277816,9.871440303,0,0,0,300,0
0,-0.009631534,-0.053148375,9.796499032,0,0,0,301,0
0,0.126050918,0.008559663,9.950444565,0,0,0,301,0
0,-0.007982758,-0.004830098,9.960916208,0,0,0,300,0
0,0.06565505,0.0151827,9.74868489,0,0,0,296,0
0,-0.192223426,-0.057665683,9.711299093,0,0,0,298,0
0,-0.068855052,-0.008845973,9.826702768,0,0,0,298,0
0,-0.1042124,0.001701577,9.955130298,0,0,0,300,0
0,-0.092498757,0.08408128,9.850430791,0,0,0,305,0
0,0.001911703,-0.191291206,9.864829358,0,0,0,298,0
0,-0.034253962,0.034851745,9.716364055,0,0,0,298,0
0,0.032545135,0.03129178,9.763365536,0,0,0,295,0
0,0.033546637,0.063908376,9.998485961,0,0,0,301,0
0,0.123591897,0.131053918,9.685209856,0,0,0,302,0
0,-0.074055634,-0.1130756,9.865073848,0,0,0,301,0
0,-0.01941557,0.043913124,9.808043674,0,0,0,297,0
0,0.018706436,-0.048438364,9.879177417,0,0,0,301,0
0,0.091105234,0.025681729,9.916116183,0,0,0,298,0
0,0.144369672,0.047013671,9.5709612,0,0,0,297,0
0,-0.03280283,0.128708754,9.816074442,0,0,0,300,0
0,-0.089710013,0.019504011,9.761131172,0,0,0,299,0
0,0.091640934,-0.028936588,9.782855116,0,0,0,295,0
0,-0.011792543,0.184020489,9.689612967,0,0,0,297,0
0,0.003481232,0.008338548,9.856875263,0,0,0,302,0
0,0.022907946,0.118881727,9.722969731,0,0,0,300,0
0,0.135848556,0.037445456,10.0165976,0,0,0,298,0
0,-0.152328553,-0.031314464,9.740550306,0,0,0,300,0
0,0.078864974,0.013835895,9.855458583,0,0,0,300,0
0,-0.027302887,0.118984265,9.937620777,0,0,0,297,0
0,0.038328661,-0.09871078,9.587544017,0,0,0,296,0
0,-0.101293382,-0.041712135,9.622171326,0,0,0,298,0
0,-0.036777502,-0.07963907,9.832206848,0,0,0,297,0
0,0.224424529,0.091740295,9.799637184,0,0,0,302,0
0,-0.05700027,-0.006749635,9.837754039,0,0,0,300,0
0,-0.137322288,-0.036061447,9.742817753,0,0,0,300,0
0,-0.018362716,0.082593923,9.799253304,0,0,0,300,0
0,0.12728856,-0.085802785,9.951946609,0,0,0,299,0
0,0.128863993,-0.165938455,9.694226476,0,0,0,299,0
0,-0.028549832,0.031775055,9.7848792,0,0,0,301,0
0,-0.145150027,-0.008844963,9.795087843,0,0,0,301,0
0,-0.019148074,-0.169637229,9.915687479,0,0,0,297,0
0,0.033216278,0.028063522,9.741985815,0,0,0,298,0
0,0.066247629,0.102012029,9.811031522,0,0,0,300,0
0,0.011011588,-0.034204163,9.791375269,0,0,0,301,0
0,0.055758029,0.129274666,9.772273686,0,0,0,294,0
0,-0.162844284,0.045747956,9.941677079,0,0,0,300,0
0,0.115907354,-0.184623578,9.703965561,0,0,0,297,0
0,-0.079550883,0.187025427,9.909819871,0,0,0,297,0
0,-0.020953775,-0.180976927,9.73810518,0,0,0,300,0
0,-0.023420917,-0.040112429,9.817207286,0,0,0,300,0
0,-0.00472862,0.090501213,9.76586317,0,0,0,301,0
0,-0.196666254,-0.053368166,9.860003148,0,0,0,297,0
0,0.139788889,-0.266713354,9.854127985,0,0,0,303,0
0,0.043028266,-0.057626477,9.735875299,0,0,0,300,0
0,-0.150794285,-0.047589006,9.942245351,0,0,0,297,0
0,-0.041115188,-0.171246387,9.610263189,0,0,0,302,0
0,-0.038683113,-0.001887525,9.883698127,0,0,0,298,0
0,0.099499931,-0.043845556,9.87840148,0,0,0,298,0
0,0.039144784,0.040883497,9.805628135,0,0,0,299,0
0,-0.052582386,0.033954958,9.871937741,0,0,0,298,0
0,0.157726583,-0.136500068,10.03552374,0,0,0,299,0
0,-0.084064374,-0.128623284,9.71351753,0,0,0,301,0
0,0.054521809,0.202748699,9.898940538,0,0,0,297,0
0,0.064144073,-0.035047097,9.786495522,0,0,0,302,0
0,0.06670428,-0.024666334,9.693118587,0,0,0,299,0
0,-0.072636613,-0.010126087,9.950037518,0,0,0,296,0
0,-0.085209451,-0.082952004,9.763076638,0,0,0,299,0
0,-0.046341003,-0.073920078,9.613022935,0,0,0,294,0
0,-0.01780541,0.076010748,9.904300317,0,0,0,301,0
0,0.047849743,0.152524248,9.911002067,0,0,0,300,0
0,-0.033163185,0.013223654,9.687097603,0,0,0,299,0
0,0.031957804,-0.19379118,9.850216584,0,0,0,299,0
0,-0.022023915,-0.053314016,9.760674477,0,0,0,301,0
0,-0.066688457,-0.154501468,9.89779325,0,0,0,297,0
0,0.059924756,-0.130631402,9.856956217,0,0,0,296,0
0,-0.054838918,0.02569588,9.854994996,0,0,0,299,0
0,0.187729436,-0.114470559,9.771777796,0,0,0,299,0
0,0.104138659,-0.122472123,9.855462306,0,0,0,297,0
0,-0.115844016,0.134303919,9.732320156,0,0,0,299,0
0,0.077150082,-0.053727992,9.893423166,0,0,0,298,0
0,0.015868132,-0.111138849,10.09319187,0,0,0,301,0
0,0.06654335,0.079222357,9.70356009,0,0,0,298,0
0,-0.08357748,0.070178637,9.944189679,0,0,0,301,0
0,-0.063071142,-0.038025874,9.749945002,0,0,0,294,0
0,0.145803625,0.02327397,9.653883744,0,0,0,300,0
0,0.057778762,0.104768258,9.877862867,0,0,0,301,0
0,-0.032690507,0.065206586,9.81274109,0,0,0,299,0
0,0.087347476,0.17506937,9.706775434,0,0,0,295,0
0,-0.124561474,0.174374581,9.714588386,0,0,0,297,0
0,-0.151316062,0.130525602,9.860289823,0,0,0,299,0
0,-0.003198454,0.162661459,9.736749768,0,0,0,297,0
0,-0.103602712,-0.031703595,9.843670102,0,0,0,302,0
0,0.063361667,-0.189747754,9.85897708,0,0,0,299,0
0,-0.122527308,-0.024847225,9.83615795,0,0,0,297,0
0,-0.074008854,0.114157013,9.750015946,0,0,0,302,0
0,-0.033880913,-0.096694877,9.873748381,0,0,0,299,0
0,-0.360439196,0.055457275,9.685022065,0,0,0,296,0
0,0.000726665,-0.122175775,9.859270068,0,0,0,301,0
0,-0.005188408,-0.169182689,9.803434725,0,0,0,301,0
0,-0.127511519,-0.096579836,9.810242842,0,0,0,297,0
0,0.016680722,-0.041529128,9.819556759,0,0,0,301,0
0,-0.047775332,0.179557029,9.843809094,0,0,0,298,0
0,0.107068572,-0.082053511,9.783251661,0,0,0,300,0
0,0.060005614,0.076532039,9.803728601,0,0,0,299,0
0,-0.012592301,-0.070284687,9.784659884,0,0,0,298,0
0,0.228745668,0.172128983,9.834228328,0,0,0,300,0
0,-0.015575874,-0.131422279,9.647033832,0,0,0,298,0
0,0.096636252,0.099331858,9.7532007,0,0,0,299,0
0,-0.01219044,0.026582323,9.913588518,0,0,0,301,0
0,-0.228665274,-0.001408284,9.822621456,0,0,0,296,0
0,-0.022997363,0.109198958,9.544048754,0,0,0,301,0
0,0.057274391,0.016261252,9.745992184,0,0,0,297,0
0,0.046483178,-0.016885459,9.88527379,0,0,0,304,0
0,0.010058101,0.142044287,9.859361134,0,0,0,302,0
0,-0.140604004,-0.108247068,9.900023853,0,0,0,299,0
0,-0.01861231,-0.16064468,9.821281668,0,0,0,294,0
0,0.04762058,-0.086206098,9.822361806,0,0,0,300,0
0,0.020543253,-0.013235758,9.776982618,0,0,0,301,0
0,-0.192265639,-0.085751699,9.640074938,0,0,0,298,0
0,0.192622194,-0.023616738,9.918757335,0,0,0,297,0
0,0.021235506,-0.007391057,9.734187811,0,0,0,299,0
0,-0.061610277,-0.049738779,9.768380395,0,0,0,299,0
0,-0.011002537,0.013819433,9.794567718,0,0,0,297,0
0,0.176588155,-0.112776701,9.859897758,0,0,0,299,0
0,-0.043157306,0.166226854,9.86495163,0,0,0,302,0
0,0.046791596,-0.040064464,9.764073549,0,0,0,302,0
0,0.021200228,0.030458227,9.745323503,0,0,0,298,0
0,0.014945404,0.009773889,9.960274019,0,0,0,296,0
0,0.153470769,-0.136540912,9.765886179,0,0,0,301,0
0,-0.180991698,-0.02850778,9.611548385,0,0,0,301,0
0,0.016163272,-0.124195067,9.805301209,0,0,0,297,0
0,-0.024946027,0.019182343,9.867354303,0,0,0,301,0
0,-0.018828959,0.070953376,9.884360693,0,0,0,301,0
0,0.120395837,-0.157307256,9.954795246,0,0,0,298,0
0,-0.131895984,0.141935848,9.848438381,0,0,0,301,0
0,-0.079757235,-0.092122234,9.589510109,0,0,0,298,0
0,-0.009530024,-0.069848696,9.644630624,0,0,0,299,0
0,0.110545392,0.057049819,9.86791885,0,0,0,304,0
0,0.032698437,0.00277296,9.741032174,0,0,0,302,0
0,-0.03770348,-0.169608804,9.827572673,0,0,0,301,0
0,-0.000815482,-0.006223209,9.745341471,0,0,0,298,0
0,-0.080466609,-0.188727747,9.640280478,0,0,0,299,0
0,0.055621991,0.007837292,9.797955665,0,0,0,299,0
0,-0.120774363,-0.025973452,9.749138235,0,0,0,299,0
0,-0.005424846,0.03014545,9.825821004,0,0,0,296,0
0,0.03550918,0.061139327,9.759981321,0,0,0,302,0
0,0.058756292,0.050699581,9.994280197,0,0,0,301,0
0,0.05954864,0.220302443,9.66239679,0,0,0,300,0
0,0.02307712,-0.015161184,9.789725573,0,0,0,303,0
0,-0.151239149,0.002370037,9.916496507,0,0,0,303,0
0,-0.15326392,-0.003969461,9.787815079,0,0,0,297,0
0,-0.032664129,-0.088077737,9.864045197,0,0,0,300,0
0,-0.11047991,-0.028898347,9.812744805,0,0,0,299,0
0,0.086998821,-0.000811532,9.981915027,0,0,0,298,0
0,0.063554772,-0.180891547,9.778629765,0,0,0,304,0
0,-0.099898268,0.121426182,9.74697352,0,0,0,300,0
0,-0.042552747,0.042865936,9.821938513,0,0,0,302,0
0,-0.230340378,-0.029851201,9.88913787,0,0,0,298,0
0,0.038486207,-0.175537384,9.792709678,0,0,0,300,0
0,-0.01468708,-0.056302419,9.928516899,0,0,0,300,0
0,0.129598766,-0.026037989,9.661988218,0,0,0,299,0
0,-0.044629971,0.128147904,9.758297313,0,0,0,301,0
0,-0.014919176,-0.00486013,9.738232554,0,0,0,302,0
0,0.004305014,0.090428128,10.03336596,0,0,0,301,0
0,0.05225275,-0.049407078,9.686331031,0,0,0,297,0
0,0.018767065,-0.115003176,9.765527205,0,0,0,297,0
0,-0.09513115,-0.110384366,9.936999446,0,0,0,296,0
0,-0.254784695,-0.084049611,9.82001692,0,0,0,303,0
0,-0.136093946,0.075157603,9.775583215,0,0,0,304,0
0,0.251248476,-0.143090289,9.824735278,0,0,0,297,0
0,0.110117869,-0.205129594,9.814574995,0,0,0,301,0
0,-0.045000794,0.061409424,9.677809926,0,0,0,299,0
0,-0.007746534,-0.101419843,9.820035247,0,0,0,301,0
0,-0.00357897,-0.107748372,9.749476168,0,0,0,299,0
0,-0.142236337,-0.015933938,9.803037481,0,0,0,302,0
0,0.148743376,0.028076615,9.832385915,0,0,0,298,0
0,-0.054847361,-0.011035619,9.908848918,0,0,0,303,0
0,0.266770459,0.203869008,9.799794749,0,0,0,298,0
0,-0.005219514,0.121950837,9.897524095,0,0,0,297,0
0,-0.070687648,-0.006676558,9.652504533,0,0,0,300,0
0,0.063111906,-0.025447522,9.90951012,0,0,0,303,0
0,0.007501723,-0.032855451,9.674438702,0,0,0,301,0
0,0.131793435,-0.025835063,9.918904819,0,0,0,299,0
0,-0.045723622,0.095426771,9.829636864,0,0,0,301,0
0,-0.098891566,0.006318682,9.681529321,0,0,0,297,0
0,-0.078016376,0.015796777,9.983077503,0,0,0,300,0
0,-0.043554785,0.015086463,9.675991554,0,0,0,296,0
0,-0.222707186,0.071357169,10.04725294,0,0,0,299,0
0,-0.139193487,0.045897122,9.820250391,0,0,0,297,0
0,-0.204037836,-0.13401066,9.694410317,0,0,0,298,0
0,-0.191234269,0.054115458,9.838597262,0,0,0,300,0
0,0.015296657,0.078491628,9.835662441,0,0,0,299,0
0,-0.227546619,0.030971336,9.925389216,0,0,0,299,0
0,0.078563765,0.153845513,10.027997,0,0,0,299,0
0,0.028868372,0.003100913,9.714962778,0,0,0,299,0
0,-0.014864165,0.066562971,9.821734101,0,0,0,297,0
0,0.031859568,0.030024763,9.743207642,0,0,0,301,0
0,-0.119990018,-0.016698703,9.822666664,0,0,0,296,0
0,-0.022599387,0.007677309,10.05069968,0,0,0,300,0
0,0.010906946,-0.242128122,9.582342544,0,0,0,295,0
0,-0.10399582,0.019333581,9.93990039,0,0,0,299,0
0,0.101991504,0.027810688,9.827513168,0,0,0,296,0
0,0.07491589,-0.146291957,9.653643771,0,0,0,303,0
0,0.006162489,0.217534042,9.722984441,0,0,0,302,0
0,-0.219114129,-0.038133514,9.994855629,0,0,0,298,0
0,0.226900217,-0.070761674,9.965402949,0,0,0,299,0
0,-0.179791668,0.13750839,9.888773272,0,0,0,302,0
0,0.012670181,-0.085501715,9.661292675,0,0,0,297,0
0,-0.200590006,0.054946224,9.640716139,0,0,0,304,0
0,0.151004432,-0.06664655,9.766598033,0,0,0,299,0
0,0.118703532,0.010217214,9.501506626,0,0,0,300,0
0,-0.162076584,0.06117745,9.605070013,0,0,0,302,0
0,-0.089200054,0.074279754,9.707862065,0,0,0,302,0
0,-0.152277695,-0.124376465,9.838001836,0,0,0,294,0
0,-0.042390844,0.080346478,9.810894703,0,0,0,300,0
0,-0.002859966,0.115096265,9.811832801,0,0,0,305,0
0,0.104880825,0.047158209,9.793709126,0,0,0,301,0
0,-0.11936221,-0.040132757,9.832637537,0,0,0,298,0
0,0.00690916,0.061898684,9.762957053,0,0,0,302,0
0,-0.007112854,-0.025084215,9.83948449,0,0,0,305,0
0,0.054454033,0.072125372,9.710714697,0,0,0,299,0
0,0.00481457,-0.007072033,9.762455083,0,0,0,299,0
0,-0.06509349,0.340736039,9.823893315,0,0,0,299,0
0,0.055786083,0.138395857,9.799068912,0,0,0,302,0
0,-0.021002178,0.028101098,9.816282917,0,0,0,301,0
0,0.033300808,-0.097051961,10.05042232,0,0,0,300,0
0,-0.108559093,-0.075092587,9.938596082,0,0,0,299,0
0,0.047672686,-0.05743542,9.826933166,0,0,0,299,0
0,0.110594022,-0.071206103,9.748053405,0,0,0,301,0
0,-0.044256569,0.030293434,9.662120937,0,0,0,298,0
0,-0.094961073,-0.083960898,9.88656509,0,0,0,301,0
0,-0.02588028,0.04900929,9.926516063,0,0,0,298,0
0,0.04350708,-0.056741302,9.701773346,0,0,0,299,0
0,0.035761262,-0.128029081,9.743042331,0,0,0,302,0
0,-0.064401533,0.014509843,9.698041139,0,0,0,300,0
0,0.054424428,-0.073210189,9.820165615,0,0,0,297,0
0,0.010236748,0.039249271,9.805216236,0,0,0,299,0
0,-0.021418066,-0.019534812,9.672059566,0,0,0,300,0
0,0.058010437,0.055316108,9.817053489,0,0,0,301,0
0,0.158675132,0.208868451,9.850040737,0,0,0,299,0
0,0.15001677,-0.041102562,10.01378323,0,0,0,300,0
0,-0.046111377,0.192596306,9.79983389,0,0,0,300,0
0,0.068239062,0.126447914,9.786677578,0,0,0,302,0
0,-0.002262091,-0.033359763,9.778601877,0,0,0,297,0
0,0.007173418,-0.111980784,9.881637115,0,0,0,297,0
0,0.038338981,-0.156353893,9.976846621,0,0,0,300,0
0,0.067210294,0.040159465,9.708098573,0,0,0,299,0
0,0.058832584,-0.000790227,9.827821671,0,0,0,301,0
0,-0.124358673,-0.141449824,9.877886354,0,0,0,298,0
0,-0.003754223,-0.075637087,9.757587943,0,0,0,299,0
0,0.094516719,-0.00160688,9.761203199,0,0,0,299,0
0,0.010599962,-0.042446508,9.789740114,0,0,0,295,0
0,0.145145453,-0.041699068,9.757267897,0,0,0,302,0
0,-0.132367381,0.023849222,9.752993743,0,0,0,297,0
0,-0.035863301,0.116837859,9.7924281,0,0,0,300,0
0,0.15139764,0.127936022,9.973283821,0,0,0,301,0
0,0.067238224,0.088971329,9.971366148,0,0,0,299,0
0,0.068053447,0.00792735,9.827823793,0,0,0,299,0
0,-0.107187188,0.057100457,9.877387957,0,0,0,298,0
0,-0.021133817,0.179964951,10.0278329,0,0,0,299,0
0,0.318975343,0.101392389,9.711756538,0,0,0,297,0
0,0.046574827,0.017299404,9.784789693,0,0,0,297,0
0,-0.110285611,0.091672495,9.864016229,0,0,0,300,0
0,0.165409715,0.194753525,9.798808888,0,0,0,297,0
0,-0.010521718,0.05730791,9.797269053,0,0,0,301,0
0,-0.242656186,-0.046454254,9.609820583,0,0,0,300,0
0,0.034240189,-0.140158983,9.660958924,0,0,0,298,0
0,0.026510556,-0.024117156,9.688265705,0,0,0,303,0
0,-0.044491504,-0.103188484,9.781412636,0,0,0,301,0
0,-0.082933604,0.282259169,9.688105557,0,0,0,302,0
0,-0.055150854,0.026676856,9.792038243,0,0,0,298,0
0,-0.071356559,0.085203449,9.760052113,0,0,0,304,0
0,0.09386631,0.093199312,9.896796415,0,0,0,299,0
0,-0.016899674,-0.006354984,9.828796175,0,0,0,296,0
0,0.085193881,-0.074691515,9.712473977,0,0,0,302,0
0,0.027378519,0.139594249,9.815781679,0,0,0,304,0
0,-0.175114173,0.085389752,9.861956937,0,0,0,301,0
0,0.018614107,-0.070703012,9.766946995,0,0,0,299,0
0,0.207686779,-0.172631159,9.846562389,0,0,0,295,0
0,0.061185128,-0.153626877,9.806256808,0,0,0,298,0
0,-0.107817965,-0.114015865,9.834545074,0,0,0,300,0
0,0.037854737,0.047235389,9.689148808,0,0,0,299,0
0,-0.199771133,0.043170853,9.654170883,0,0,0,302,0
0,-0.035819325,-0.01572239,9.817136514,0,0,0,300,0
0,-0.049797049,-0.064720073,9.793909626,0,0,0,300,0
0,0.038513031,-0.023459633,9.919666853,0,0,0,297,0
0,-0.003475748,0.089639242,9.80259107,0,0,0,298,0
0,0.062319962,-0.032545466,9.897136225,0,0,0,302,0
0,-0.092242476,0.073970215,9.618281394,0,0,0,300,0
0,-0.120222892,0.105811061,9.710418726,0,0,0,301,0
0,-0.099113595,-0.120275701,9.643392715,0,0,0,301,0
0,0.002352973,0.189615947,9.971665276,0,0,0,299,0
0,-0.038558908,-0.068573337,9.786499714,0,0,0,302,0
0,-0.006720268,0.049929187,9.943367926,0,0,0,305,0
0,0.064049909,0.15847353,9.807828829,0,0,0,300,0
0,-0.057794422,0.07360719,9.901730404,0,0,0,299,0
0,0.0104487,0.135275391,9.712535289,0,0,0,303,0
0,-0.15864372,-0.031139903,9.862065774,0,0,0,299,0
0,-0.09570169,0.012010306,9.745422718,0,0,0,296,0
0,-0.143878794,-0.191692178,9.821205652,0,0,0,302,0
0,0.035685423,-0.114024412,9.752114875,0,0,0,301,0
0,-0.030304194,-0.035281032,9.816917333,0,0,0,297,0
0,0.313836476,-0.021027358,9.755967941,0,0,0,298,0
0,0.108876186,-0.184065673,9.959757233,0,0,0,302,0
0,0.002903179,-0.207808115,9.987638311,0,0,0,299,0
0,0.042770603,-0.110048274,9.93042187,0,0,0,299,0
0,-0.046925933,0.04701876,9.781541847,0,0,0,299,0
0,0.032103575,0.000567989,9.735266647,0,0,0,298,0
0,-0.062612636,0.021676788,9.873981601,0,0,0,300,0
0,0.200610289,0.03057906,9.649800548,0,0,0,301,0
0,-0.057742339,-0.153361803,9.80366086,0,0,0,301,0
0,0.014696286,0.01286612,9.768261817,0,0,0,300,0
0,0.143288552,-0.200593204,9.621082873,0,0,0,303,0
0,-0.006280267,0.169307163,9.774093469,0,0,0,306,0
0,-0.046498844,-0.038542593,9.863898034,0,0,0,303,0
0,-0.020936821,-0.049917393,9.808217606,0,0,0,301,0
0,-0.010766153,-0.115149359,9.749614596,0,0,0,298,0
0,0.180087992,-0.027156697,9.793638675,0,0,0,300,0
0,-0.01181216,0.041476179,9.808509986,0,0,0,301,0
0,-0.015147198,0.064123728,9.912593164,0,0,0,294,0
0,-0.036179493,-0.115579871,9.526901799,0,0,0,302,0
0,0.135258604,0.038470193,9.753667642,0,0,0,300,0
0,0.022373694,0.192699507,9.592066972,0,0,0,302,0
0,0.159503452,0.001988584,9.747243741,0,0,0,301,0
0,-0.008897755,-0.141026398,9.649633337,0,0,0,298,0
0,0.031826148,0.037468822,9.487873744,0,0,0,299,0
0,0.064212418,0.047590995,9.880071736,0,0,0,298,0
0,-0.023240261,-0.022235526,9.644158664,0,0,0,303,0
0,0.10005463,0.132669616,9.760572173,0,0,0,300,0
0,-0.07733914,0.041083356,9.84741307,0,0,0,302,0
0,0.195012973,0.068892494,9.732038564,0,0,0,298,0
0,-0.213664871,0.009319866,9.856855516,0,0,0,305,0
0,0.19055052,-0.165751886,9.842603924,0,0,0,301,0
0,-0.020141056,-0.043864711,9.600197518,0,0,0,297,0
0,-0.097005212,0.064856469,9.708866754,0,0,0,301,0
0,0.114778524,0.036553055,9.718641157,0,0,0,299,0
0,-0.062316222,-0.16804139,9.668530064,0,0,0,300,0
0,0.085288509,0.032289245,9.983158987,0,0,0,296,0
0,-0.119630654,0.088690214,9.470746289,0,0,0,300,0
0,0.007172107,0.047507759,9.720995552,0,0,0,301,0
0,-0.126453896,0.209449804,9.62982422,0,0,0,299,0
0,-0.100290105,0.045600336,9.763465551,0,0,0,300,0
0,0.118204329,-0.023881355,9.938541572,0,0,0,301,0
0,0.198369722,0.079649516,9.929017379,0,0,0,301,0
0,-0.068500888,0.117095159,9.934745961,0,0,0,300,0
0,-0.119090441,0.147764021,9.808644107,0,0,0,299,0
0,-0.043567751,0.021584328,9.896052317,0,0,0,299,0
0,0.065903277,-0.06772881,9.695675438,0,0,0,303,0
0,0.08102384,-0.061917932,9.666775926,0,0,0,298,0
0,0.081887052,-0.008286227,9.680531098,0,0,0,297,0
0,0.044807184,0.042618697,9.721449279,0,0,0,298,0
0,-0.022872537,-0.023181722,9.72581762,0,0,0,301,0
0,0.013688279,0.144698986,9.77114274,0,0,0,299,0
0,0.046490297,-0.006768279,9.845435054,0,0,0,298,0
0,0.000144364,0.002007655,9.69599261,0,0,0,297,0
0,-0.16818246,-0.167502737,9.72222572,0,0,0,297,0
0,0.014980827,-0.139805492,9.901434856,0,0,0,300,0
0,0.0337243,0.053914083,9.949885449,0,0,0,301,0
0,0.033698564,0.050502106,9.892319427,0,0,0,297,0
0,0.102476799,-0.015523408,9.915227718,0,0,0,299,0
0,0.203173812,0.169268776,9.538947377,0,0,0,296,0
0,-0.009032288,-0.084551523,9.82617379,0,0,0,297,0
0,0.186102919,0.030821071,9.797643308,0,0,0,299,0
0,0.144477297,-0.062473195,9.816414387,0,0,0,302,0
0,-0.122913632,0.078132085,9.880650459,0,0,0,296,0
0,-0.083869254,0.018181304,9.92301272,0,0,0,296,0
0,0.017565058,0.12152464,9.941823169,0,0,0,300,0
0,-0.058550042,0.07546927,9.828795522,0,0,0,301,0
0,0.018786956,0.036828244,9.821589505,0,0,0,301,0
0,0.157198388,0.128784575,9.761034577,0,0,0,298,0
0,0.070990469,-0.095964164,9.693779909,0,0,0,297,0
0,0.188397557,-0.00349141,9.785165632,0,0,0,293,0
0,0.081957646,0.054610119,9.763483845,0,0,0,298,0
0,0.169404911,-0.033702034,9.767563203,0,0,0,300,0
0,-0.035855521,-0.027489252,9.828221299,0,0,0,303,0
0,-0.019571213,0.018251995,9.838704823,0,0,0,299,0
0,0.202150814,-0.005619776,9.716157765,0,0,0,296,0
0,0.021376016,0.087316267,9.834530275,0,0,0,299,0
0,-0.005410085,-0.023626546,9.858506747,0,0,0,298,0
0,-0.038307439,-0.093894142,9.809017659,0,0,0,296,0
0,0.011681339,0.054056773,9.664808271,0,0,0,301,0
0,0.103518807,-0.119314511,9.997414379,0,0,0,297,0
0,-0.054738069,-0.132700888,9.897665139,0,0,0,300,0
0,0.054884395,0.050613396,9.960160439,0,0,0,300,0
0,-0.008520513,-0.057964871,9.990621717,0,0,0,301,0
0,0.097226277,0.235186468,9.838145004,0,0,0,301,0
0,-0.017793213,-0.168939099,9.88629057,0,0,0,301,0
0,0.073443468,0.00866912,9.75689795,0,0,0,296,0
0,-0.020125386,0.072146605,9.74489936,0,0,0,302,0
0,0.065646278,0.001135311,9.847023803,0,0,0,298,0
0,-0.078286896,-0.206096139,9.853420982,0,0,0,299,0
0,0.071650333,-0.078414559,9.707527645,0,0,0,299,0
0,0.088543021,-0.067721274,9.790275196,0,0,0,298,0
0,-0.063544694,-0.02062782,9.853947029,0,0,0,298,0
0,-0.037317161,-0.108358639,9.731264433,0,0,0,299,0
0,0.031633367,0.11662155,9.763545614,0,0,0,300,0
0,-0.11460289,0.014315712,9.962350707,0,0,0,300,0
0,0.045283347,-0.044581028,9.663705402,0,0,0,296,0
0,-0.059093741,0.004017859,9.807585979,0,0,0,299,0
0,-0.033204929,-0.051178664,9.798805402,0,0,0,298,0
0,-0.091392262,-0.004488416,9.795956258,0,0,0,298,0
0,-0.041302381,0.034909467,9.728772237,0,0,0,300,0
0,-0.026689804,-0.066540382,9.783672958,0,0,0,303,0
0,-0.005201424,-0.110511057,9.898548913,0,0,0,299,0
0,-0.015273285,0.174146286,9.877873813,0,0,0,299,0
0,0.075660501,-0.003877425,9.877256189,0,0,0,301,0
0,-0.048427355,-0.016787419,9.84415694,0,0,0,299,0
0,-0.156330544,0.049623609,9.883000581,0,0,0,299,0
0,0.1709509,0.030551127,9.634621833,0,0,0,297,0
0,-0.114528247,-0.130136955,9.695064698,0,0,0,301,0
0,-0.156319536,-0.160717463,9.586191465,0,0,0,300,0
0,-0.180609526,0.05945529,9.765962494,0,0,0,300,0
0,-0.00510319,-0.163617792,9.929271889,0,0,0,297,0
0,0.020934794,0.081264805,9.89264062,0,0,0,301,0
0,-0.126417167,0.083991719,9.865755327,0,0,0,299,0
0,0.044420367,0.001192873,9.803285006,0,0,0,300,0
0,-0.029929904,-0.024589518,9.830711146,0,0,0,298,0
0,0.14758022,0.130331888,9.61662498,0,0,0,302,0
0,-0.045994182,0.16649649,9.705662183,0,0,0,297,0
0,0.194443335,-0.029041281,9.959899878,0,0,0,297,0
0,0.062107499,0.102239826,9.668763861,0,0,0,299,0
0,0.031804664,-0.005627536,9.832597876,0,0,0,299,0
0,-0.062727363,0.033355455,9.842677741,0,0,0,298,0
0,0.021889874,-0.087974237,9.855627538,0,0,0,300,0
0,-0.089767561,-0.091063651,9.948835486,0,0,0,298,0
0,-0.143917071,-0.06874461,9.858549209,0,0,0,303,0
0,0.118348018,-0.065195883,9.767014975,0,0,0,298,0
0,-0.069273129,-0.014667166,9.861699574,0,0,0,301,0
0,0.081369596,-0.033690112,9.76997705,0,0,0,298,0
0,0.179202293,0.098930004,9.859903569,0,0,0,298,0
0,0.132670601,-0.080525351,9.635177594,0,0,0,299,0
0,0.099987715,-0.03922845,9.983351571,0,0,0,296,0
0,0.007172744,0.007715639,9.922720657,0,0,0,300,0
0,0.097089694,-0.182599788,9.929556986,0,0,0,299,0
0,-0.056483151,-0.161798938,9.968117146,0,0,0,300,0
0,-0.038500426,0.072139485,9.752426824,0,0,0,299,0
0,0.029190206,-0.006464903,9.760327222,0,0,0,297,0
0,-0.005094514,-0.05000073,9.713261989,0,0,0,299,0
0,-0.071065589,0.041183437,9.877634134,0,0,0,300,0
0,0.133056635,0.084091364,9.913583916,0,0,0,294,0
0,0.072947194,0.090932161,9.768270663,0,0,0,299,0
0,-0.129490178,-0.093531516,9.586596771,0,0,0,303,0
0,-0.245879523,0.124019791,9.871686802,0,0,0,297,0
0,0.051369572,-0.136169522,9.713685525,0,0,0,299,0
0,0.054042152,-0.08839186,9.581329257,0,0,0,299,0
0,0.003228428,0.056735886,9.809998401,0,0,0,299,0
0,-0.189722639,0.069384626,9.706699258,0,0,0,302,0
0,-0.038873952,0.00644722,9.92637276,0,0,0,301,0
0,-0.026471276,-0.03190212,9.656192025,0,0,0,299,0
0,-0.001044439,0.103646426,9.703190331,0,0,0,298,0
0,-0.027848547,0.024473356,9.834234833,0,0,0,298,0
0,-0.09506256,0.017715591,9.824688622,0,0,0,299,0
0,0.054059748,-0.106669439,9.882913843,0,0,0,300,0
0,0.062162108,-0.015839073,9.702945857,0,0,0,300,0
0,-0.048462127,-0.118916811,9.86207977,0,0,0,300,0
0,-0.039599605,0.036334394,9.831851147,0,0,0,297,0
0,0.146811286,-0.032583873,9.668440479,0,0,0,302,0
0,0.020143062,0.050033787,9.729675844,0,0,0,300,0
0,-0.023813428,-0.193570078,9.707326366,0,0,0,300,0
0,0.068582574,-0.155271533,9.769629443,0,0,0,301,0
0,-0.035830404,0.022493936,9.744732603,0,0,0,299,0
0,-0.115924595,0.093834315,9.776389394,0,0,0,298,0
0,0.012871286,-0.123064853,9.752287926,0,0,0,296,0
0,-0.038399042,-0.050005987,9.793589574,0,0,0,299,0
0,-0.044624405,-0.007914437,9.837990794,0,0,0,301,0
0,-0.098831226,0.110723087,9.834901172,0,0,0,296,0
0,0.023783728,-0.026361971,9.801800692,0,0,0,301,0
0,0.02071918,0.171679245,9.743326144,0,0,0,302,0
0,0.014891711,0.023158848,9.711081997,0,0,0,298,0
0,0.00933536,-0.001185109,9.883665913,0,0,0,297,0
0,-0.112147594,0.314877627,9.786659898,0,0,0,303,0
0,0.052898107,-0.056278668,9.862463134,0,0,0,300,0
0,0.060553787,-0.066443483,9.840080598,0,0,0,299,0
0,0.015133596,0.037503091,9.688563685,0,0,0,296,0
0,-0.059229721,-0.023396626,9.658441776,0,0,0,300,0
0,0.030291959,-0.075340584,9.921425627,0,0,0,300,0
0,0.113959928,0.028959064,9.76721091,0,0,0,300,0
0,-0.048720211,-0.061708056,9.770148186,0,0,0,296,0
0,-0.022414821,0.036777319,9.971943651,0,0,0,300,0
0,0.093991222,-0.089318535,9.866200237,0,0,0,301,0
0,-0.035591679,0.102011772,9.725080215,0,0,0,301,0
0,-0.190223354,0.01358374,9.955973452,0,0,0,300,0
0,0.023563909,-0.04250218,9.699499799,0,0,0,301,0
0,-0.114907572,-0.026408647,9.834506835,0,0,0,302,0
0,-0.20503389,-0.038034804,9.944443015,0,0,0,300,0
0,-0.075452117,-0.088784814,9.967680736,0,0,0,298,0
0,0.037341794,0.002056095,9.791817994,0,0,0,298,0
0,-0.177217224,-0.032305936,9.669354094,0,0,0,298,0
0,-0.064379223,0.003944491,9.692790453,0,0,0,297,0
0,-0.029884347,0.054815929,9.758044777,0,0,0,302,0
0,0.07110365,-0.005104883,9.661886467,0,0,0,300,0
0,-0.06826653,-0.080323304,9.814988659,0,0,0,297,0
0,0.026041254,-0.050067812,9.782258393,0,0,0,302,0
0,0.173077809,0.147429598,9.927187787,0,0,0,297,0
0,-0.133127831,-0.288582019,9.717570846,0,0,0,297,0
0,-0.077064796,-0.117460857,9.751577249,0,0,0,300,0
0,-0.031352459,0.00840336,9.765712681,0,0,0,299,0
0,-0.08090796,-0.059925098,9.745878267,0,0,0,296,0
0,-0.095767446,0.06475965,9.769182196,0,0,0,298,0
0,-0.104156587,-0.11960582,9.70252759,0,0,0,301,0
0,-0.003702721,-0.143272597,9.779709063,0,0,0,300,0
0,0.033784721,0.037101655,9.784409136,0,0,0,300,0
0,-0.068617053,-0.041112944,9.971869399,0,0,0,301,0
0,0.010016879,-0.028631349,9.810732032,0,0,0,301,0
0,-0.139618098,-0.14682037,10.04587616,0,0,0,299,0
0,0.026983718,-0.049251411,9.751683018,0,0,0,301,0
0,0.003658366,-0.019805502,9.846968657,0,0,0,296,0
0,0.054774574,0.191169556,9.780685145,0,0,0,297,0
0,-0.084899479,-0.075247879,9.843918541,0,0,0,298,0
0,-0.071401308,-0.032357578,9.858490076,0,0,0,299,0
0,0.006985403,-0.039775132,9.737068462,0,0,0,296,0
0,-0.02563192,-0.171170051,9.804547229,0,0,0,301,0
0,-0.201893615,-0.187247301,9.751445219,0,0,0,302,0
0,0.04878608,0.115882514,9.928242576,0,0,0,301,0
0,-0.091711003,0.030963898,9.577870322,0,0,0,301,0
0,0.086317832,0.042092598,9.800821456,0,0,0,301,0
0,0.114351922,-0.104424815,9.489358164,0,0,0,298,0
0,-0.196043262,0.044581083,9.752139643,0,0,0,299,0
0,-0.10841286,-0.10881038,9.697562445,0,0,0,300,0
0,0.067478,0.284229817,9.867114785,0,0,0,303,0
0,-0.10955188,0.056029419,9.939824897,0,0,0,298,0
0,0.005456767,-0.0073613,9.712662036,0,0,0,295,0
0,-0.038708604,-0.076979972,9.766897834,0,0,0,303,0
0,-0.180121384,-0.117792186,9.885570488,0,0,0,301,0
0,0.074655835,-0.117036363,9.74718194,0,0,0,296,0
0,-0.060301899,0.035413912,9.837982979,0,0,0,300,0
0,-0.039800185,-0.061740197,9.863175675,0,0,0,301,0
0,0.020040151,-0.048761746,10.06765721,0,0,0,301,0
0,-0.022923233,-0.089983258,9.821093774,0,0,0,300,0
0,-0.031594828,0.041505268,9.814282576,0,0,0,302,0
0,0.069796836,0.051184473,9.802026795,0,0,0,300,0
0,0.094509309,-0.011282197,9.907855997,0,0,0,298,0
0,-0.078165568,-0.021961111,9.739222451,0,0,0,297,0
0,0.009447087,-0.087420263,9.664720972,0,0,0,298,0
0,-0.153479596,-0.201408614,9.84683806,0,0,0,299,0
0,0.034059268,0.006752716,9.72667483,0,0,0,299,0
0,0.044514315,-0.048423493,9.733913806,0,0,0,299,0
0,0.088506103,-0.056986996,9.80859141,0,0,0,297,0
0,-0.149644406,0.004513774,9.952615527,0,0,0,298,0
0,-0.106191291,-0.034142615,9.635667494,0,0,0,303,0
0,0.058308843,-0.112468993,9.727614756,0,0,0,298,0
0,-0.00351668,-0.050469104,9.756228466,0,0,0,300,0
0,-0.097513215,-0.13445271,9.893274144,0,0,0,302,0
0,-0.013564048,-0.132140307,9.91979221,0,0,0,299,0
0,-0.033780074,0.025369427,9.840827998,0,0,0,299,0
0,0.045470494,0.128484598,9.752381878,0,0,0,301,0
0,0.142516056,-0.063581945,9.772152763,0,0,0,296,0
0,-0.056550747,0.062253266,9.775856166,0,0,0,297,0
0,-0.085843337,-0.030305758,9.802120039,0,0,0,297,0
0,0.165832487,0.048776187,9.830129361,0,0,0,300,0
0,-0.10963703,0.129690767,9.948318083,0,0,0,301,0
0,0.015130476,-0.061957118,9.895923989,0,0,0,299,0
0,0.045303793,-0.012667973,9.821306821,0,0,0,302,0
0,-0.054910017,0.111004309,9.691066693,0,0,0,300,0
0,-0.0071074,0.097325028,9.961931674,0,0,0,296,0
0,-0.054150076,-0.031740066,9.655884478,0,0,0,302,0
0,-0.036486571,0.032354352,9.780082583,0,0,0,300,0
0,0.005834144,-0.140505057,9.817293464,0,0,0,298,0
0,-0.102703235,0.002924618,9.825142913,0,0,0,300,0
0,0.121616757,0.004351397,9.631460155,0,0,0,297,0
0,0.082262738,0.162313,9.85388612,0,0,0,299,0
0,0.139662838,-0.165698213,9.753682942,0,0,0,301,0
0,-0.139092438,0.100526379,9.861731539,0,0,0,297,0
0,0.030433857,0.066382647,9.877887038,0,0,0,301,0
0,0.070565635,-0.147043241,9.847136088,0,0,0,297,0
0,-0.012466615,0.09516905,9.798695659,0,0,0,302,0
0,0.07134066,0.012727299,9.835360535,0,0,0,299,0
0,0.085656415,-0.116741394,9.861982644,0,0,0,301,0
0,-0.102060025,-0.071341693,9.703889958,0,0,0,299,0
0,-0.010958204,0.035874016,9.747099346,0,0,0,297,0
0,0.093559714,0.007627939,9.789027774,0,0,0,303,0
0,0.053323898,0.24929674,9.875849488,0,0,0,299,0
0,0.072515684,-0.000637768,9.799311658,0,0,0,300,0
0,-0.101984643,-0.049611385,9.864245193,0,0,0,297,0
0,0.062415285,-0.022702631,9.771168607,0,0,0,298,0
0,-0.058542498,-0.096357508,9.772065958,0,0,0,298,0
0,-0.006363603,0.080197988,9.957093185,0,0,0,300,0
0,0.07121036,-0.022165206,9.615279841,0,0,0,297,0
0,-0.042847794,0.058970165,9.917975284,0,0,0,297,0
0,-0.001654677,-0.007634145,9.721874678,0,0,0,299,0
0,0.147078407,0.178973048,9.935113995,0,0,0,296,0
0,0.060005753,0.041788359,9.938025174,0,0,0,298,0
0,0.192024731,-0.028068327,9.746234596,0,0,0,299,0
0,-0.194262079,-0.045606239,9.698709089,0,0,0,298,0
0,-0.033008228,0.047205836,9.805464385,0,0,0,302,0
0,0.030337551,-0.069340603,9.847361389,0,0,0,300,0
0,-0.068901679,-0.129219068,9.641128491,0,0,0,304,0
0,-0.02072448,0.031645753,10.00748387,0,0,0,297,0
0,-0.062031207,-0.015160479,9.859567677,0,0,0,298,0
0,-0.121863096,0.049288079,9.873466607,0,0,0,299,0
0,0.066946267,0.067585899,9.889885249,0,0,0,302,0
0,-0.035049895,-0.036566249,9.819336505,0,0,0,302,0
0,-0.020439976,0.204174624,9.871533851,0,0,0,301,0
0,-0.014793761,-0.146912823,9.813392088,0,0,0,300,0
0,-0.245316371,-0.010513808,10.05045399,0,0,0,299,0
0,0.063191703,0.043761681,9.782794253,0,0,0,301,0
0,0.019007946,0.167752399,9.901304398,0,0,0,300,0
0,0.100332425,0.054535466,9.685343995,0,0,0,301,0
0,0.124669984,-0.008632313,9.724127693,0,0,0,300,0
0,-0.226052974,-0.047058914,9.9554293,0,0,0,301,0
0,-0.094508023,-0.059998344,9.611673237,0,0,0,300,0
0,0.047209074,0.016383028,9.674673667,0,0,0,300,0
0,-0.224135414,-0.123155046,9.707586501,0,0,0,299,0
0,0.022245094,-0.06905653,9.96232322,0,0,0,298,0
0,0.008690688,0.008869692,9.676298214,0,0,0,300,0
0,-0.000424422,0.185316892,9.825702445,0,0,0,302,0
0,0.00304263,0.079258314,9.642572269,0,0,0,300,0
0,-0.104162946,-0.154283394,9.790305491,0,0,0,300,0
0,0.238843965,0.010882183,9.860281135,0,0,0,301,0
0,0.076648477,0.13451012,9.823552154,0,0,0,299,0
0,0.033799205,0.064248248,9.779063519,0,0,0,298,0
0,0.10636766,0.139611497,9.800932073,0,0,0,299,0
0,-0.081340225,0.184020816,9.818575886,0,0,0,298,0
0,0.004655925,-0.061120337,9.714503842,0,0,0,298,0
0,-0.003710175,-0.098144956,9.819402835,0,0,0,299,0
0,0.128814479,0.107929968,9.902716825,0,0,0,297,0
0,-0.014909996,-0.10792231,9.596061302,0,0,0,302,0
0,-0.098252867,0.114618715,9.639965141,0,0,0,296,0
0,-0.036195881,-0.04861889,9.812361605,0,0,0,300,0
0,-0.059206874,0.185431235,9.918861764,0,0,0,303,0
0,0.018459536,-0.259914174,9.817973641,0,0,0,299,0
0,0.12280925,0.092800826,9.748125645,0,0,0,301,0
0,0.012465826,0.066626261,9.965752826,0,0,0,301,0
0,-0.225261867,-0.167417484,9.720337816,0,0,0,302,0
0,0.00386432,-0.052146034,9.912702377,0,0,0,304,0
0,0.137259952,0.28060567,9.787715124,0,0,0,300,0
0,0.000304329,0.013394459,9.98447614,0,0,0,303,0
0,0.004430195,0.014292746,9.75073462,0,0,0,296,0
0,0.044520605,0.076335616,9.882239399,0,0,0,299,0
0,-0.036562641,-0.025710471,9.841810996,0,0,0,298,0
0,-0.090901906,0.026346324,9.759004875,0,0,0,300,0
0,-0.019879448,-0.042517506,9.834275223,0,0,0,299,0
0,0.001086957,0.118082185,9.800160318,0,0,0,298,0
0,0.051154379,-0.029061636,9.926529513,0,0,0,296,0
0,-0.022506839,0.037097599,9.737079028,0,0,0,302,0
0,0.009166897,-0.042895469,9.902361825,0,0,0,302,0
0,-0.077698421,0.091816117,9.92021415,0,0,0,297,0
0,-0.060037037,0.116111946,9.766976087,0,0,0,299,0
0,-0.115305644,-0.170730607,9.674865389,0,0,0,295,0
0,0.052925862,0.18990151,9.722416725,0,0,0,297,0
0,0.023949577,-0.008302357,9.909379373,0,0,0,299,0
0,-0.154668655,0.224508335,9.938575526,0,0,0,303,0
0,-0.000314649,-0.062236757,9.933614439,0,0,0,302,0
0,-0.087826879,0.114360557,9.704126717,0,0,0,297,0
0,0.006127711,0.164601875,9.711585464,0,0,0,302,0
0,0.023890081,-0.061097148,9.791568123,0,0,0,300,0
0,-0.093344525,0.134571578,9.808280844,0,0,0,296,0
0,-0.092747001,0.034989479,9.865445434,0,0,0,300,0
0,-0.06355357,-0.009568195,9.91337057,0,0,0,299,0
0,0.002665776,-0.108803915,9.573530719,0,0,0,299,0
0,0.137135935,-0.036761536,9.84442546,0,0,0,297,0
0,0.050993424,0.058586691,9.893006085,0,0,0,299,0
0,-0.061258048,-0.094378914,9.803575781,0,0,0,303,0
0,0.083600039,-0.028210302,9.7518114,0,0,0,295,0
0,0.091991728,-0.090879393,9.715605728,0,0,0,300,0
0,0.170425673,0.049820284,9.961750881,0,0,0,300,0
0,-0.132861211,-0.048141083,9.862846357,0,0,0,298,0
0,-0.151445602,-0.040685726,9.794800755,0,0,0,301,0
0,0.114724631,0.024655986,9.753399339,0,0,0,299,0
0,-0.015976671,0.003288883,9.97760545,0,0,0,295,0
0,0.05064623,0.079353035,9.906232375,0,0,0,299,0
0,0.021378225,0.004371256,9.797553301,0,0,0,298,0
0,0.001204195,-0.248463723,9.781521732,0,0,0,298,0
0,0.032590402,0.104738428,9.784419869,0,0,0,297,0
0,0.006618853,0.137700772,9.69174312,0,0,0,299,0
0,0.017781729,-0.077752014,9.808919009,0,0,0,300,0
0,-0.06598358,0.136718097,9.959879387,0,0,0,302,0
0,0.072346825,-0.180297993,9.79157654,0,0,0,300,0
0,-0.167234231,0.093929401,9.783320309,0,0,0,297,0
0,-0.046467415,0.046945351,9.776096349,0,0,0,301,0
0,0.054262933,-0.087411269,9.860016176,0,0,0,301,0
0,-0.060143181,0.155596279,9.968172958,0,0,0,299,0
0,-0.066651005,-0.045284129,9.954780945,0,0,0,300,0
0,0.056105294,0.042890999,9.75575495,0,0,0,302,0
0,-0.17379552,-0.089086567,9.760751279,0,0,0,301,0
0,0.075712394,-0.049784907,9.727399984,0,0,0,300,0
0,-0.130453241,-0.022702935,9.943456646,0,0,0,299,0
0,0.277099474,-0.106154391,9.844738957,0,0,0,299,0
0,-0.002254448,0.029170841,9.907365232,0,0,0,304,0
0,0.07001677,0.066585664,9.927718517,0,0,0,299,0
0,-0.001224297,-0.02381376,9.780411128,0,0,0,301,0
0,0.080275215,0.033214096,9.769918977,0,0,0,301,0
0,-0.071803497,0.136844657,9.764943659,0,0,0,301,0
0,-0.044784407,0.011267363,9.735698163,0,0,0,302,0
0,-0.134436651,-0.009022142,9.875063981,0,0,0,298,0
0,-0.016573207,-0.246615023,9.803321163,0,0,0,299,0
0,0.037512117,-0.157049909,9.920252345,0,0,0,301,0
0,0.0149683,0.072196934,9.692196139,0,0,0,301,0
0,-0.03630155,-0.012513527,9.791534232,0,0,0,299,0
0,-0.196225028,0.009825718,9.811916821,0,0,0,298,0
0,0.017030447,-0.102034856,9.833786183,0,0,0,304,0
0,-0.20355717,-0.232568822,9.860439096,0,0,0,299,0
0,0.24649941,-0.009346622,9.794983072,0,0,0,298,0
0,-0.183319845,0.181137669,9.675103069,0,0,0,301,0
0,-0.041059229,0.110940138,9.922089472,0,0,0,301,0
0,0.093223776,-0.000287449,9.740370491,0,0,0,301,0
0,-0.012339408,-0.109463342,9.681119774,0,0,0,298,0
0,0.059396745,0.106131473,9.944474753,0,0,0,299,0
0,-0.129186895,-0.035954925,9.830380624,0,0,0,304,0
0,-0.050445767,0.020890493,9.747608754,0,0,0,300,0
0,0.074219221,-0.022091319,9.829953802,0,0,0,301,0
0,0.137744765,-0.073362882,9.865315304,0,0,0,300,0
0,0.03117088,0.222164232,9.735150549,0,0,0,302,0
0,0.048416786,0.004606687,9.76747343,0,0,0,300,0
0,-0.020239621,-0.105724368,9.805343579,0,0,0,297,0
0,-0.026425622,-0.026288775,9.807819792,0,0,0,300,0
0,0.002122094,0.104971684,9.678118796,0,0,0,300,0
0,0.018683494,-0.075689076,9.799615325,0,0,0,295,0
0,-0.073132528,-0.041530054,9.943125048,0,0,0,299,0
0,-0.127793352,-0.162461449,9.640542789,0,0,0,300,0
0,0.000858466,0.091840664,9.755106931,0,0,0,298,0
0,0.027942409,0.03994585,9.763269417,0,0,0,300,0
0,0.0374947,0.029323734,9.810617131,0,0,0,299,0
0,0.024959045,0.033972974,9.742660745,0,0,0,297,0
0,0.007266917,-0.22661065,9.644699299,0,0,0,299,0
0,0.134563291,-0.041907768,9.759064018,0,0,0,302,0
0,-0.024941043,-0.001700317,9.728780175,0,0,0,301,0
0,-0.034871667,-0.032040006,9.851262966,0,0,0,302,0
0,-0.016091098,-0.144234209,9.964321983,0,0,0,297,0
0,0.041684508,-0.169912349,9.852912797,0,0,0,302,0
0,-0.178734788,-0.112728077,9.839535502,0,0,0,299,0
0,-0.114502828,0.034788392,9.856570833,0,0,0,300,0
0,0.108962449,-0.160627797,9.78812227,0,0,0,300,0
0,0.10967658,0.019228782,9.751176567,0,0,0,299,0
0,-0.057467978,-0.133345356,10.07396593,0,0,0,301,0
0,-0.111869972,-0.184226092,9.74270665,0,0,0,301,0
0,0.027339798,0.055410166,9.892610914,0,0,0,299,0
0,-0.005917038,0.104671063,9.771834788,0,0,0,299,0
0,0.092627287,0.156147149,9.916161911,0,0,0,300,0
0,0.047344234,0.066444221,9.788089921,0,0,0,300,0
0,-0.013276426,0.041060645,9.862454458,0,0,0,298,0
0,0.060822338,-0.016490182,9.787543331,0,0,0,299,0
0,0.121626518,-0.093703191,9.835465576,0,0,0,299,0
0,0.076336952,0.097018999,9.80978422,0,0,0,299,0
0,-0.10754124,0.059589087,9.743044949,0,0,0,300,0
0,0.00789617,0.097206976,9.895250331,0,0,0,297,0
0,0.109747511,0.00414945,9.783452793,0,0,0,301,0
0,0.103508258,0.108814149,9.799826852,0,0,0,297,0
0,0.110627609,-0.087933024,9.560360836,0,0,0,298,0
0,0.012679619,0.000870247,9.865659276,0,0,0,299,0
0,-0.077601488,-0.075559733,9.90831943,0,0,0,300,0
0,-0.060899657,-0.063570653,9.763326445,0,0,0,299,0
0,0.005364418,-0.195937265,9.774776155,0,0,0,301,0
0,0.01089211,0.061640796,9.800739038,0,0,0,299,0
0,-0.060160758,0.033308572,9.911838483,0,0,0,300,0
0,0.031143493,0.047367719,9.82129303,0,0,0,299,0
0,0.085884271,-0.223666448,9.77238952,0,0,0,300,0
0,0.021108278,-0.126695252,9.926974001,0,0,0,297,0
0,-0.012006056,-0.081626906,9.83094045,0,0,0,298,0
0,0.00505807,0.136138686,9.640035695,0,0,0,297,0
0,0.008265834,0.179628383,9.973561104,0,0,0,297,0
0,0.118045172,-0.018212862,9.885236031,0,0,0,302,0
0,0.014889931,-0.033162799,9.922469153,0,0,0,304,0
0,0.102654688,0.032631697,9.80094732,0,0,0,297,0
0,-0.03056131,-0.152032494,9.644461441,0,0,0,298,0
0,-0.058636983,-0.038258613,9.794973543,0,0,0,298,0
0,-0.204841175,-0.0114048,9.928046515,0,0,0,298,0
0,0.032886649,-0.048419666,9.850731102,0,0,0,300,0
0,0.055962714,-0.134684823,9.829962323,0,0,0,298,0
0,-0.127727337,0.248303044,9.773137505,0,0,0,297,0
0,0.028231423,0.099271651,9.818860819,0,0,0,298,0
0,0.093145054,-0.172445277,9.962330865,0,0,0,302,0
0,-0.125101407,0.120236519,9.781655438,0,0,0,302,0
0,-0.001766874,0.068607289,9.834268476,0,0,0,300,0
0,0.103031533,0.140357807,9.752631574,0,0,0,296,0
0,-0.046910395,0.017155296,9.733860606,0,0,0,299,0
0,-0.020379276,0.097147301,9.709812329,0,0,0,299,0
0,-0.097982082,-0.076290832,9.807895305,0,0,0,300,0
0,-0.016890683,-0.018856613,9.67870953,0,0,0,297,0
0,-0.146957299,-0.058824381,9.789077761,0,0,0,300,0
0,-0.016088313,0.032119463,9.978328467,0,0,0,301,0
0,0.008507528,0.023034402,9.762712186,0,0,0,297,0
0,0.068475778,0.060990708,9.87562342,0,0,0,300,0
0,-0.016044539,0.057803486,9.700882867,0,0,0,303,0
0,0.062037444,0.023882996,9.80721727,0,0,0,299,0
0,-0.048362264,0.064347548,9.786235843,0,0,0,298,0
0,-0.019579528,0.133008244,9.805042655,0,0,0,297,0
0,-0.037690188,-0.027098606,9.733647765,0,0,0,300,0
0,-0.077748506,0.136900608,9.667788245,0,0,0,299,0
0,-0.148787947,-0.073887697,9.851176932,0,0,0,299,0
0,-0.046603988,-0.013201105,9.99601428,0,0,0,299,0
0,-0.211074061,-0.17863105,9.810332227,0,0,0,301,0
0,-0.096495561,0.181102089,9.793656774,0,0,0,301,0
0,0.117037677,-0.159520532,9.704492965,0,0,0,297,0
0,-0.061295707,0.24733607,9.807398779,0,0,0,300,0
0,-0.045260405,-0.007092114,9.703110995,0,0,0,298,0
0,-0.048258686,-0.082053419,9.710155288,0,0,0,302,0
0,0.117875846,-0.123509278,9.857979463,0,0,0,300,0
0,-0.057462723,-0.048438583,9.926039262,0,0,0,304,0
0,-0.028122798,-0.08095317,9.752698899,0,0,0,301,0
0,-0.017626087,-0.193566292,9.881580856,0,0,0,300,0
0,-0.156831156,-0.025858796,9.903558002,0,0,0,303,0
0,-0.030912501,-0.254970483,9.762136811,0,0,0,303,0
0,-0.007989717,-0.024591191,9.730798134,0,0,0,297,0
0,0.017215586,-0.16668708,9.838238668,0,0,0,300,0
0,-0.001541978,-0.047583072,9.806195591,0,0,0,299,0
0,0.081109787,0.095568301,9.814714706,0,0,0,299,0
0,-0.15253617,-0.006306715,9.84460781,0,0,0,299,0
0,-0.090221685,0.097848117,9.788511679,0,0,0,299,0
0,0.045079897,-0.079024533,9.701272143,0,0,0,300,0
0,0.17715018,-0.057833093,9.809633705,0,0,0,299,0
0,-0.027166605,-0.058946936,9.887166118,0,0,0,297,0
0,-0.058178933,-0.067361037,9.949456342,0,0,0,302,0
0,-0.150074068,-0.131702348,9.966606567,0,0,0,299,0
0,0.053977968,-0.060477836,9.928527191,0,0,0,298,0
0,-0.112317849,0.18558989,9.938997832,0,0,0,301,0
0,0.007216353,-0.164769128,9.737765787,0,0,0,299,0
0,-0.083472114,0.014353967,9.712014044,0,0,0,300,0
0,-0.028687052,-0.159083864,9.768828369,0,0,0,299,0
0,0.003168382,-0.099649309,9.668750127,0,0,0,296,0
0,-0.088183781,-0.027726542,9.819600004,0,0,0,300,0
0,0.031308216,0.08002441,9.812272836,0,0,0,300,0
0,0.062027157,-0.085779139,9.670346534,0,0,0,300,0
0,-0.075738592,-0.072294536,9.698936874,0,0,0,296,0
0,0.117997125,-0.023389389,9.758769014,0,0,0,304,0
0,0.114197945,-0.011541184,9.925815053,0,0,0,304,0
0,0.026952396,-0.016489726,9.961416137,0,0,0,302,0
0,0.063808244,-0.07557942,9.736547295,0,0,0,299,0
0,0.076464361,-0.179142701,9.729936212,0,0,0,301,0
0,0.06188194,0.035947167,9.94362387,0,0,0,297,0
0,0.069737407,0.049568431,9.985037773,0,0,0,298,0
0,-0.053065012,-0.028769515,9.694711437,0,0,0,299,0
0,0.128162683,-0.135993379,9.929675851,0,0,0,300,0
0,0.02780634,0.08159102,9.744341402,0,0,0,298,0
0,0.01747289,-0.042864096,9.821831482,0,0,0,297,0
0,-0.077613065,0.092120284,9.732733135,0,0,0,302,0
0,-0.119002908,-0.037859438,9.653990494,0,0,0,299,0
0,-0.288904373,-7.19E-06,9.816323745,0,0,0,299,0
0,-0.146458556,-0.016534231,9.712511837,0,0,0,301,0
0,-0.075901702,0.002899127,9.625238188,0,0,0,302,0
0,0.045207483,0.071098801,9.768229728,0,0,0,301,0
0,-0.085895383,0.052312177,9.836772772,0,0,0,299,0
0,0.028763961,-0.038855213,9.9716104,0,0,0,297,0
0,-0.127156014,0.056510289,9.757792758,0,0,0,299,0
0,-0.071869449,-0.062323353,9.721102576,0,0,0,296,0
0,-0.011261858,-0.110541276,9.730697227,0,0,0,301,0
0,-0.144095987,-0.06202646,9.868620907,0,0,0,299,0
0,0.01689059,0.116120714,9.833153213,0,0,0,299,0
0,0.090920515,-0.170652496,9.843371165,0,0,0,300,0
0,0.051526867,-0.085130138,9.939899294,0,0,0,299,0
0,-0.020235316,0.255670201,9.801679394,0,0,0,297,0
0,0.084820372,0.145689793,9.862487704,0,0,0,301,0
0,0.105433749,4.51E-05,9.907186047,0,0,0,301,0
0,-0.133058664,0.261237675,9.838927214,0,0,0,301,0
0,-0.010760343,-0.044368021,9.942190767,0,0,0,298,0
0,0.059286357,0.118206763,9.862517253,0,0,0,300,0
0,-0.023205317,0.133317179,9.604804714,0,0,0,298,0
0,-0.219878229,0.072544925,9.808481284,0,0,0,300,0
0,0.208178454,-0.181715079,9.752752949,0,0,0,302,0
0,-0.00451975,-0.113553286,9.776059929,0,0,0,299,0
0,0.037115978,-0.06108309,9.837503026,0,0,0,301,0
0,-0.030279646,-0.052308223,9.921143868,0,0,0,299,0
0,-0.053660695,0.093923216,9.740028471,0,0,0,303,0
0,-0.076989223,0.079334609,9.705058615,0,0,0,297,0
0,-0.054987477,-0.121929882,9.64548308,0,0,0,300,0
0,-0.062351997,-0.033732285,9.908928009,0,0,0,297,0
0,-0.085236722,-0.069330506,9.713849673,0,0,0,299,0
0,0.139763937,-0.066877782,9.809565187,0,0,0,300,0
0,-0.077734542,-0.09553422,9.943292157,0,0,0,303,0
0,-0.09352154,-0.031542074,9.865955157,0,0,0,300,0
0,0.305765977,-0.014618928,9.808280422,0,0,0,302,0
0,-0.03166251,-0.049818439,9.761523999,0,0,0,300,0
0,-0.16387193,0.034849156,9.748156662,0,0,0,298,0
0,0.188568107,-0.213428726,9.670486858,0,0,0,300,0
0,0.166328671,0.036208349,9.953231289,0,0,0,297,0
0,0.059242939,-0.06396744,9.630972883,0,0,0,301,0
0,-0.188942962,0.052431116,9.927479291,0,0,0,300,0
0,0.24158875,-0.072119402,9.752436759,0,0,0,299,0
0,0.224207494,-0.021698506,9.714491716,0,0,0,299,0
0,0.138514042,-0.079073542,9.599387492,0,0,0,297,0
0,0.065855169,0.003185051,9.925829039,0,0,0,298,0
0,-0.041488004,-0.125839147,9.613181464,0,0,0,299,0
0,-0.016554382,-0.0137628,9.957227491,0,0,0,300,0
0,-0.023752384,-0.040125607,9.831664962,0,0,0,300,0
0,-0.119436102,0.039856891,9.969755609,0,0,0,300,0
0,-0.138414214,0.031615458,9.823304459,0,0,0,298,0
0,0.182170015,-0.00666818,9.746174564,0,0,0,299,0
0,0.177756057,-0.066655894,9.980174195,0,0,0,300,0
0,0.036191621,0.041865783,9.869415336,0,0,0,299,0
0,-0.053197569,0.048703136,9.82168514,0,0,0,301,0
0,-0.317524554,-0.071625767,9.860610787,0,0,0,299,0
0,0.052672948,-0.017789515,9.775339037,0,0,0,301,0
0,-0.013441057,0.14125279,9.836475272,0,0,0,301,0
0,-0.120986215,0.217341908,9.889978261,0,0,0,300,0
0,-0.043915804,0.043733187,9.903983752,0,0,0,296,0
0,0.059711531,0.01623793,9.944433108,0,0,0,300,0
0,-0.075710426,-0.045814062,9.918628986,0,0,0,300,0
0,0.048331313,-0.19095066,9.787084226,0,0,0,301,0
0,-0.002304712,-0.066629001,9.853925325,0,0,0,299,0
0,-0.135463483,-0.001140612,9.637148593,0,0,0,301,0
0,0.066037211,-0.067279806,9.829142338,0,0,0,300,0
0,-0.115995008,0.223078454,9.868568653,0,0,0,295,0
0,0.034307602,0.116277422,9.834916136,0,0,0,302,0
0,0.172738499,0.089477909,9.648999408,0,0,0,303,0
0,0.048438425,-0.02938598,9.901987768,0,0,0,301,0
0,-0.023536171,0.004966449,9.914829383,0,0,0,301,0
0,0.113179046,0.132203961,9.876870855,0,0,0,299,0
0,0.043140768,0.090055252,9.916102927,0,0,0,298,0
0,0.026639366,-0.114014277,9.702796539,0,0,0,302,0
0,-0.041301526,-0.073886846,9.819944434,0,0,0,301,0
0,-0.054627086,-0.00335237,9.787840203,0,0,0,299,0
0,-0.015528655,0.029691027,9.892626916,0,0,0,301,0
0,-0.076589315,0.03022095,9.683954081,0,0,0,299,0
0,-0.163457539,-0.087930968,9.659438248,0,0,0,298,0
0,0.10923331,-0.046214811,9.795027165,0,0,0,302,0
0,-0.041447325,-0.012297163,9.777652776,0,0,0,300,0
0,-0.22479765,0.034108265,9.856379959,0,0,0,300,0
0,0.057302421,-0.019296089,9.74138249,0,0,0,302,0
0,-0.143121195,-0.013262579,9.74613316,0,0,0,297,0
0,0.147783457,-0.164853559,9.65495222,0,0,0,302,0
0,-0.057642354,-0.055648381,9.823476903,0,0,0,299,0
0,0.071712655,-0.148582364,9.776542422,0,0,0,300,0
0,0.046134888,-0.169658583,9.875410919,0,0,0,301,0
0,-0.078138403,-0.006003564,9.693702358,0,0,0,300,0
0,-0.167580818,0.184612014,9.953691035,0,0,0,301,0
0,-0.02628802,-0.229716662,9.673448692,0,0,0,297,0
0,0.036892249,-0.031872045,9.830872619,0,0,0,300,0
0,-0.024689282,0.073366772,9.828869852,0,0,0,297,0
0,0.007207013,-0.056011996,9.68722549,0,0,0,299,0
0,0.034494315,-0.095514449,9.750330802,0,0,0,298,0
0,0.045269796,0.019596105,9.830453118,0,0,0,302,0
0,0.056486705,-0.126162808,9.795069685,0,0,0,303,0
0,-0.107905755,-0.036959768,9.750859339,0,0,0,299,0
0,-0.063100277,0.010895935,9.838027252,0,0,0,302,0
0,-0.14813397,-0.007425426,9.621592501,0,0,0,300,0
0,0.043208924,0.121699683,9.882760669,0,0,0,299,0
0,0.04096767,-0.088579324,9.737517607,0,0,0,298,0
0,0.007950081,0.00169995,9.670110972,0,0,0,301,0
0,-0.101548483,-0.013456758,10.05408879,0,0,0,299,0
0,-0.044750122,-0.037142323,9.952867478,0,0,0,299,0
0,-0.083707514,0.010183032,9.830641836,0,0,0,298,0
0,0.141009242,-0.1454704,9.828289599,0,0,0,301,0
0,0.044218716,0.092740127,9.871260839,0,0,0,298,0
0,0.04049698,-0.016660953,9.898336679,0,0,0,301,0
0,-0.035564855,-0.045935567,9.892362924,0,0,0,294,0
0,0.080874808,0.070452915,9.696929317,0,0,0,299,0
0,0.050198851,0.04365852,10.04976907,0,0,0,298,0
0,-0.037039209,0.07901267,9.99488108,0,0,0,298,0
0,0.002331845,-0.173686225,9.699925378,0,0,0,303,0
0,0.097326433,0.092533253,9.713966679,0,0,0,296,0
0,-0.049809557,0.007322897,9.673521212,0,0,0,298,0
0,0.254481369,-0.013408968,9.730399591,0,0,0,297,0
0,0.063777078,-0.078467179,9.792734422,0,0,0,300,0
0,-0.023915853,0.030150102,9.919611421,0,0,0,302,0
0,-0.136814137,-0.077178765,9.760051094,0,0,0,301,0
0,0.024804677,0.11769432,9.869700018,0,0,0,302,0
0,0.112137168,-0.048577375,9.803938492,0,0,0,300,0
0,0.110091613,-0.136368294,9.749902803,0,0,0,299,0
0,-0.027631727,0.002110524,9.813636849,0,0,0,300,0
0,0.030096451,-0.276082934,9.907292355,0,0,0,299,0
0,0.096974415,-0.133152836,9.73013134,0,0,0,298,0
0,-0.059322022,-0.006767449,9.61318084,0,0,0,298,0
0,-0.020339993,-0.103852483,9.656376293,0,0,0,301,0
0,-0.045523825,-0.24433921,9.656363597,0,0,0,300,0
0,0.049578582,-0.040184205,9.909687821,0,0,0,302,0
0,-0.085639302,-0.017831377,9.763973322,0,0,0,303,0
0,0.059832826,0.101147141,9.817677528,0,0,0,301,0
0,0.113768738,0.043145746,9.825857888,0,0,0,300,0
0,-0.033322872,0.014643811,9.923280933,0,0,0,299,0
0,0.130426366,-0.026909698,9.796618903,0,0,0,302,0
0,-0.170207017,-0.091665906,9.761416895,0,0,0,301,0
0,0.012164098,-0.14616552,9.824649667,0,0,0,298,0
0,0.013107403,-0.084754718,9.671071354,0,0,0,300,0
0,-0.134454383,-0.040036231,9.846706667,0,0,0,301,0
0,-0.027053943,0.065836423,9.859374697,0,0,0,300,0
0,-0.066689887,-0.169685534,9.854350409,0,0,0,302,0
0,0.014083288,-0.10266621,9.845848623,0,0,0,298,0
0,-0.028399043,0.06829036,9.938951933,0,0,0,297,0
0,0.036596492,0.004391786,9.782696167,0,0,0,300,0
0,0.049848416,-0.078448073,9.72949799,0,0,0,301,0
0,-0.078295601,-0.079436261,9.544765233,0,0,0,300,0
0,-0.073732602,-0.081343251,9.904213681,0,0,0,301,0
0,0.044183016,0.119200219,9.779304962,0,0,0,300,0
0,0.046809099,-0.037236844,9.860721365,0,0,0,301,0
0,0.098618041,-0.005472236,9.822214666,0,0,0,297,0
0,0.022939351,0.110433457,9.762498854,0,0,0,296,0
0,0.025762092,0.100988192,9.831134474,0,0,0,298,0
0,-0.043013867,-0.021202163,10.00475931,0,0,0,298,0
0,0.1413455,0.113356221,9.767590647,0,0,0,300,0
0,0.00024133,0.073356523,9.868517784,0,0,0,303,0
0,0.03357273,-0.064229683,9.752712803,0,0,0,297,0
0,0.039317933,0.005842175,9.669520898,0,0,0,298,0
0,0.012861647,-0.14932075,9.841127163,0,0,0,296,0
0,-0.077040298,-0.068001358,9.843433319,0,0,0,299,0
0,-0.057274317,0.14344815,9.724275058,0,0,0,302,0
0,0.03050399,-0.027025085,9.800438962,0,0,0,302,0
0,0.049066291,0.133457613,9.902443087,0,0,0,301,0
0,-0.06469901,0.171290083,9.685719385,0,0,0,299,0
0,0.122918605,0.071253346,9.558599657,0,0,0,299,0
0,0.109725064,-0.107397516,9.792506796,0,0,0,299,0
0,-0.08856132,-0.16084825,9.616289744,0,0,0,296,0
0,0.010091823,0.0965446,9.819211333,0,0,0,300,0
0,0.054754623,-0.052314524,9.857096873,0,0,0,301,0
0,-0.073845073,-0.042452561,9.758289343,0,0,0,301,0
0,-0.012345667,-0.117261765,9.927813961,0,0,0,301,0
0,0.025434461,-0.004425149,9.717963677,0,0,0,299,0
0,0.115959339,-0.205469626,9.650681295,0,0,0,302,0
0,0.053771257,0.135934679,9.811588179,0,0,0,300,0
0,-0.05425296,-0.019620359,9.826146358,0,0,0,300,0
0,-0.133561703,-0.039409832,9.922254446,0,0,0,301,0
0,-0.078655094,0.128330584,9.692895906,0,0,0,300,0
0,0.053801592,-0.129103595,9.717835668,0,0,0,297,0
0,0.072579,0.031728089,9.714157184,0,0,0,299,0
0,-0.045911539,0.147889164,10.03984846,0,0,0,302,0
0,0.097026622,0.049102926,9.797983111,0,0,0,297,0
0,-0.002853778,-0.193927518,9.662976069,0,0,0,300,0
0,0.139463844,0.003386552,9.820344605,0,0,0,299,0
0,0.131572173,-0.360322722,9.9749793,0,0,0,296,0
0,0.021564319,0.055068799,9.697002552,0,0,0,299,0
0,0.083060248,-0.060593997,9.88311639,0,0,0,299,0
0,-0.110503522,0.142819363,9.711719872,0,0,0,302,0
0,0.164406479,-0.056743436,10.03855393,0,0,0,298,0
0,0.164012229,0.163361865,9.823306288,0,0,0,298,0
0,-0.057078088,0.070775126,9.676844713,0,0,0,301,0
0,0.111720318,0.097950874,9.706699744,0,0,0,297,0
0,-0.005046183,0.034025119,9.754257879,0,0,0,298,0
0,-0.021448152,-0.004619698,9.816141639,0,0,0,301,0
0,0.1438888,-0.044711632,9.773501474,0,0,0,300,0
0,0.006991957,-0.089582561,9.743238462,0,0,0,300,0
0,0.021188896,0.017754994,9.857493913,0,0,0,301,0
0,0.012599224,-0.045739992,9.652981261,0,0,0,303,0
0,-0.02674142,0.096779731,9.926779007,0,0,0,301,0
0,-0.038871558,-0.086206805,9.895221347,0,0,0,298,0
0,0.139609573,-0.056654876,9.737454126,0,0,0,303,0
0,-0.070420201,-0.018963277,9.930267275,0,0,0,298,0
0,-0.222584207,-0.065922481,9.737311223,0,0,0,300,0
0,-0.049392973,0.106227116,9.710471043,0,0,0,299,0
0,-0.118894173,0.059359252,9.929524095,0,0,0,298,0
0,0.032769245,0.048219864,9.869685707,0,0,0,297,0
0,-9.62E-05,0.115702566,9.959029497,0,0,0,300,0
0,-0.022281601,0.03960396,9.94497686,0,0,0,298,0
0,0.112605663,0.012575875,9.799493225,0,0,0,299,0
0,-0.1294619,0.062547402,9.729401462,0,0,0,296,0
0,-0.104198791,-0.052871452,9.911137137,0,0,0,303,0
0,-0.074499255,0.199139271,9.89504374,0,0,0,301,0
0,0.002487923,0.173208827,9.920378167,0,0,0,301,0
0,0.048859108,0.041832655,9.820972836,0,0,0,301,0
0,0.129104958,0.145271254,9.841598692,0,0,0,301,0
0,0.140464938,0.360273457,9.695091027,0,0,0,300,0
0,0.01565876,0.047380698,9.635627496,0,0,0,301,0
0,-0.017770456,0.016847919,9.705931495,0,0,0,303,0
0,-0.051794391,0.093293901,9.902228256,0,0,0,298,0
0,0.032232136,-0.084414136,9.813525251,0,0,0,297,0
0,0.031666868,-0.146137604,9.704091336,0,0,0,298,0
0,-0.132954104,-0.111886834,9.918364329,0,0,0,300,0
0,0.102282277,0.120277225,9.71154894,0,0,0,300,0
0,0.039039209,0.113944392,9.825891323,0,0,0,299,0
0,-0.003609211,0.094867709,9.784695615,0,0,0,301,0
0,0.064441939,0.090670675,9.817982349,0,0,0,298,0
0,0.110553153,-0.010060503,9.75674523,0,0,0,302,0
0,0.088983533,-0.117367518,9.654573785,0,0,0,296,0
0,0.018191607,0.012711042,9.910723381,0,0,0,302,0
0,0.044256696,0.168912823,9.820524638,0,0,0,301,0
0,0.127074438,-0.039032495,9.829242567,0,0,0,299,0
0,0.222047637,0.162587176,9.834755167,0,0,0,298,0
0,0.014716659,0.060211968,9.665806974,0,0,0,296,0
0,0.017480733,0.019414947,9.674415035,0,0,0,301,0
0,0.028583661,-0.060259402,9.820180372,0,0,0,302,0
0,0.083472156,0.058605564,9.763242065,0,0,0,301,0
0,0.116086472,0.038700726,9.829448971,0,0,0,300,0
0,-0.006062106,0.111123468,9.842234815,0,0,0,300,0
0,0.071531884,-0.098684511,9.856395766,0,0,0,298,0
0,0.036587769,-0.125280594,9.819517751,0,0,0,300,0
0,-0.037420873,0.107001461,9.792333948,0,0,0,298,0
0,0.000770307,0.089681453,9.853654564,0,0,0,299,0
0,0.020205196,0.028587364,9.753958323,0,0,0,300,0
0,0.150905289,-0.040359279,9.727962453,0,0,0,298,0
0,0.099735129,0.079639884,10.02808456,0,0,0,299,0
0,0.097423856,-0.041079231,9.612052759,0,0,0,297,0
0,-0.143126867,0.083954238,9.780693185,0,0,0,297,0
0,0.047010816,-0.117257882,9.657310436,0,0,0,298,0
0,0.052754943,-0.019282302,9.879859103,0,0,0,300,0
0,-0.130424111,-0.025973182,9.887017866,0,0,0,302,0
0,-0.017621462,-0.046270641,9.803926771,0,0,0,298,0
0,0.115511966,-0.017995718,9.892595791,0,0,0,300,0
0,0.029952312,-0.002562355,9.854288706,0,0,0,299,0
0,0.003789729,-0.191162188,9.773525481,0,0,0,300,0
0,-0.00573589,0.065307131,9.911758376,0,0,0,299,0
0,0.047291404,0.131308889,9.801297291,0,0,0,301,0
0,0.028785348,0.026784907,9.843932186,0,0,0,301,0
0,-0.043585056,-0.059249289,9.915885115,0,0,0,301,0
0,-0.120305396,-0.002918765,9.664253213,0,0,0,297,0
0,0.106572289,0.248471869,9.824248605,0,0,0,301,0
0,0.045035107,-0.042549303,9.799204944,0,0,0,294,0
0,-0.085174055,0.057297012,9.799517272,0,0,0,299,0
0,-0.010376388,-0.106593947,9.688969736,0,0,0,302,0
0,0.106075764,-0.105707657,9.726943695,0,0,0,298,0
0,-0.055064587,-0.054101555,9.886321015,0,0,0,296,0
0,0.033519526,-0.111123252,9.780674099,0,0,0,300,0
0,0.067063418,-0.021323337,9.724334417,0,0,0,299,0
0,0.071475884,-0.132676545,9.9503839,0,0,0,297,0
0,-0.022074859,-0.113794859,9.79794297,0,0,0,299,0
0,0.061458771,0.070084297,9.72319881,0,0,0,302,0
0,0.006863227,0.092449706,9.702677268,0,0,0,299,0
0,0.076637729,-0.027154035,9.788096828,0,0,0,297,0
0,0.071918677,0.195248551,9.913335927,0,0,0,297,0
0,-0.139177406,-0.105918543,9.823157002,0,0,0,297,0
0,-0.156728915,0.050216393,9.729366475,0,0,0,298,0
0,0.069264055,0.045809111,9.727857242,0,0,0,300,0
0,-0.118815911,0.030243535,10.00430961,0,0,0,300,0
0,0.193775531,-0.01000975,9.88793949,0,0,0,302,0
0,0.127088634,0.027261011,10.03056213,0,0,0,295,0
0,-0.05373677,-0.021456879,9.794897714,0,0,0,297,0
0,-0.015478242,0.077250265,9.823811011,0,0,0,300,0
0,0.011783238,0.044390338,9.854033638,0,0,0,298,0
0,0.140458277,0.065545116,9.970818191,0,0,0,300,0
0,0.145065621,0.094408359,9.640106669,0,0,0,300,0
0,0.13292912,0.177731005,9.819572296,0,0,0,300,0
0,-0.154047423,0.117636627,9.478841914,0,0,0,298,0
0,-0.087958571,0.125063361,9.751538164,0,0,0,298,0
0,0.068833265,-0.040891823,9.815279752,0,0,0,299,0
0,0.043792614,-0.049672287,9.737444481,0,0,0,298,0
0,0.098803276,-0.005519964,9.838016831,0,0,0,301,0
0,0.117051476,0.045545982,9.873109001,0,0,0,299,0
0,-0.159442977,-0.015839282,9.837127658,0,0,0,305,0
0,-0.14979021,-0.163505196,9.924677166,0,0,0,299,0
0,0.112151894,0.1035118,9.744506643,0,0,0,299,0
0,-0.033946915,0.020881171,9.735217037,0,0,0,300,0
0,-0.064134643,-0.157524294,9.692579189,0,0,0,297,0
0,-0.081999606,-0.188215423,9.773786222,0,0,0,298,0
0,-0.121493867,-0.024599209,9.889292949,0,0,0,300,0
0,0.00871012,-0.063418089,9.712496973,0,0,0,300,0
0,0.11156154,0.020149789,9.784660399,0,0,0,299,0
0,-0.116273856,0.145438445,9.754261965,0,0,0,297,0
0,-0.043415226,0.103542367,9.649870932,0,0,0,299,0
0,-0.008165603,0.13556424,9.784923348,0,0,0,299,0
0,0.042741672,0.062596915,9.832736538,0,0,0,297,0
0,-0.092676147,-0.095077233,9.69632648,0,0,0,301,0
0,0.075796731,-0.044455962,9.747091887,0,0,0,300,0
0,-0.108985556,0.113108616,9.876009406,0,0,0,300,0
0,-0.170389439,-0.026843748,9.856496547,0,0,0,300,0
0,0.010102896,-0.114982924,9.996187394,0,0,0,299,0
0,0.005051802,-0.137965878,9.859211278,0,0,0,297,0
0,0.08188466,-0.031537508,9.897775582,0,0,0,302,0
0,-0.086553661,0.072777178,9.903153205,0,0,0,299,0
0,0.163205639,-0.086096772,9.862418601,0,0,0,299,0
0,0.084375599,0.045345971,9.707998726,0,0,0,299,0
0,0.075051836,0.087011615,9.546293364,0,0,0,298,0
0,0.229446416,-0.091593029,9.883513317,0,0,0,301,0
0,-0.121157204,-0.017909402,9.76886729,0,0,0,296,0
0,0.061613865,0.027536395,9.819006401,0,0,0,301,0
0,0.023215442,0.12161659,9.790132055,0,0,0,297,0
0,0.089606768,-0.128056063,9.811537771,0,0,0,300,0
0,0.094703096,0.028309236,9.744567634,0,0,0,294,0
0,0.042353173,-0.199319747,9.806853691,0,0,0,300,0
0,0.03127876,0.094227512,9.745624616,0,0,0,300,0
0,0.143367903,-0.042027845,10.02498779,0,0,0,300,0
0,0.038794304,0.019503842,9.802405861,0,0,0,301,0
0,-0.024269209,0.080337334,9.838744492,0,0,0,302,0
0,-0.065413192,-0.068871122,9.917125205,0,0,0,299,0
0,-0.211606571,-0.07841337,9.995390406,0,0,0,301,0
0,0.219501411,-0.031195164,9.777535201,0,0,0,301,0
0,-0.020457671,-0.071085345,9.869368569,0,0,0,301,0
0,0.177780939,-0.00978452,9.94037391,0,0,0,297,0
0,-0.113063635,-0.13676133,9.85085982,0,0,0,300,0
0,-0.07081718,0.03779281,9.815396114,0,0,0,299,0
0,0.032552034,-0.02928014,9.834561219,0,0,0,298,0
0,-0.091311183,-0.073990558,9.69554754,0,0,0,298,0
0,-0.003037789,0.01094237,9.707572637,0,0,0,301,0
0,0.01689028,0.043763901,9.868462782,0,0,0,300,0
0,0.13762182,0.066348054,9.874263392,0,0,0,301,0
0,-0.020111449,0.008255349,9.847836154,0,0,0,300,0
0,0.050812645,-0.162998724,9.814611881,0,0,0,301,0
0,-0.189799883,-0.040600752,9.937144259,0,0,0,298,0
0,0.095831757,0.041563798,9.834581803,0,0,0,302,0
0,0.023696649,0.029058373,9.955033701,0,0,0,299,0
0,0.068938406,0.142783185,9.929459182,0,0,0,302,0
0,0.005911906,-0.182458557,9.860485351,0,0,0,299,0
0,0.00901485,0.041770452,9.757800677,0,0,0,300,0
0,-0.083904399,0.014392479,9.643948995,0,0,0,299,0
0,0.01746891,-0.105261386,9.96067941,0,0,0,298,0
0,0.073105609,0.075705573,9.823066039,0,0,0,300,0
0,-0.0633407,-0.049325128,9.833392135,0,0,0,300,0
0,-0.164663288,0.102283075,9.911269669,0,0,0,296,0
0,0.008915954,-0.099647028,9.964357272,0,0,0,296,0
0,0.034323389,-0.099886359,9.671580319,0,0,0,300,0
0,-0.09077385,-0.025026228,9.606114498,0,0,0,298,0
0,-0.06359431,0.013318915,9.83724455,0,0,0,301,0
0,0.184205353,0.136975756,9.811164558,0,0,0,294,0
0,-0.196086735,0.13001458,9.867232455,0,0,0,301,0
0,-0.028930958,0.074129319,9.692136278,0,0,0,299,0
0,-0.014557414,-0.037225192,9.711686685,0,0,0,302,0
0,-0.186370813,0.03608349,9.701051965,0,0,0,297,0
0,-0.084942811,0.182136497,9.82605831,0,0,0,298,0
0,-0.107889963,0.080681854,9.759741279,0,0,0,300,0
0,0.019727844,0.204344675,9.623873622,0,0,0,300,0
0,-0.115324705,-0.085028852,9.798091056,0,0,0,302,0
0,-0.077510814,0.000465135,9.762364282,0,0,0,298,0
0,0.040669402,-0.02294436,9.674184447,0,0,0,303,0
0,-0.084397183,0.011736706,9.603310666,0,0,0,302,0
0,-0.11510474,0.092736532,9.805738194,0,0,0,299,0
0,-0.059094386,-0.058879857,9.706750509,0,0,0,298,0
0,-0.102946846,-0.049688823,9.83615142,0,0,0,301,0
0,0.104016966,0.030988808,9.971899071,0,0,0,298,0
0,0.165677783,-0.129226966,9.654630742,0,0,0,302,0
0,-0.04747194,-0.220006625,10.01992855,0,0,0,303,0
0,-0.097810823,-0.082546369,9.715099971,0,0,0,297,0
0,-0.144095756,-0.122706376,9.952621477,0,0,0,296,0
0,-0.10035061,0.098501166,9.907887982,0,0,0,298,0
0,0.060724419,-0.010474181,9.898962954,0,0,0,298,0
0,-0.102239869,0.11347911,9.696398904,0,0,0,298,0
0,0.121255617,-0.00052071,9.606068883,0,0,0,302,0
0,-0.076318184,-0.128699643,9.897747762,0,0,0,304,0
0,0.105601279,0.092350573,9.766492903,0,0,0,299,0
0,0.122315171,-0.109248495,9.847770642,0,0,0,298,0
0,-0.067447515,-0.145073275,9.736663625,0,0,0,299,0
0,-0.087230759,-0.121384902,9.785071787,0,0,0,299,0
0,-0.048852967,0.050068024,9.777030222,0,0,0,299,0
0,0.10889723,-0.116431129,9.899325736,0,0,0,299,0
0,-0.107412678,0.006846363,9.844162438,0,0,0,299,0
0,0.091162505,0.082408283,9.750732041,0,0,0,299,0
0,0.02303073,0.128788636,9.972542715,0,0,0,304,0
0,-0.097984444,0.214264039,9.818219281,0,0,0,299,0
0,0.09286433,0.162126164,9.853359209,0,0,0,298,0
0,-0.049189568,0.031787216,9.648080818,0,0,0,301,0
0,-0.107778395,0.177412301,9.56853588,0,0,0,301,0
0,0.124974741,0.068412823,9.889901482,0,0,0,298,0
0,-0.11411907,0.08889939,9.804933255,0,0,0,297,0
0,-0.068768144,0.019053322,9.682859762,0,0,0,301,0
0,-0.020644749,0.030521538,9.755062852,0,0,0,296,0
0,-0.020575402,0.028065844,9.829826738,0,0,0,299,0
0,-0.035196731,-0.05846722,9.610334752,0,0,0,297,0
0,-0.074699034,-0.324965418,9.732011628,0,0,0,297,0
0,0.128854308,-0.091929594,9.736788446,0,0,0,298,0
0,-0.168580096,-0.055039615,9.693392733,0,0,0,296,0
0,-0.021546221,0.041863156,9.920892432,0,0,0,296,0
0,0.131873816,0.030919529,9.755847825,0,0,0,299,0
0,0.107737216,-0.04891316,9.893501086,0,0,0,299,0
0,-0.230173377,0.06669455,9.748500292,0,0,0,297,0
0,0.071120071,0.078177138,9.80498946,0,0,0,298,0
0,-0.023566017,-0.031472669,10.02562195,0,0,0,300,0
0,-0.161045355,0.12571515,9.608675608,0,0,0,300,0
0,-0.095085304,0.008260643,9.856616331,0,0,0,299,0
0,-0.114096122,0.013429813,9.716976469,0,0,0,301,0
0,0.03455117,-0.151726652,9.696727918,0,0,0,297,0
0,-0.105389291,-0.102030841,9.902742962,0,0,0,300,0
0,-0.120121538,-0.133845805,9.704588771,0,0,0,300,0
0,0.246714051,-0.066340876,9.732100778,0,0,0,300,0
0,0.020102927,-0.128493187,9.939147445,0,0,0,297,0
0,0.259249201,0.026034653,9.713966052,0,0,0,296,0
0,-0.117490284,-0.159638928,9.635976583,0,0,0,299,0
0,-0.040868195,-0.019097985,9.699778829,0,0,0,301,0
0,0.029734179,0.092804058,9.786970769,0,0,0,298,0
0,-0.152491287,0.042029736,9.874504512,0,0,0,301,0
0,-0.03228425,0.204182554,9.716481121,0,0,0,301,0
0,0.003721585,-0.100289917,9.753062368,0,0,0,298,0
0,-0.054015232,-0.0487268,9.938137112,0,0,0,300,0
0,0.183192653,-0.026353671,9.76456748,0,0,0,300,0
0,0.064627321,0.005813742,9.774489275,0,0,0,303,0
0,0.046929286,-0.038499645,9.775006188,0,0,0,299,0
0,0.152938569,0.14471284,9.727892515,0,0,0,297,0
0,0.173075649,0.132651667,9.775465071,0,0,0,300,0
0,-0.160501583,0.019391895,9.665942669,0,0,0,298,0
0,0.034648864,-0.047285006,9.763522288,0,0,0,297,0
0,0.032886804,0.165524653,9.952077553,0,0,0,296,0
0,0.148182813,-0.017020482,10.01811633,0,0,0,300,0
0,-0.057291963,0.059191003,9.835488847,0,0,0,299,0
0,0.142108289,0.017374359,9.748614561,0,0,0,301,0
0,0.027238078,0.211995264,9.673380497,0,0,0,299,0
0,-0.075462426,-0.096899493,9.915460738,0,0,0,302,0
0,-0.13558078,0.13476292,9.578101401,0,0,0,302,0
0,-0.052782582,-0.077219718,9.878063761,0,0,0,301,0
0,-0.07168177,-0.060779772,9.772663897,0,0,0,300,0
0,-0.048294395,0.109357428,9.749398905,0,0,0,299,0
0,-0.098886679,0.024218793,9.718637613,0,0,0,298,0
0,0.054040004,-0.066147388,9.869915241,0,0,0,301,0
0,-0.053162347,-0.136329656,9.565816701,0,0,0,297,0
0,-0.238412288,0.010084226,9.749957475,0,0,0,300,0
0,-0.008894033,-0.058069604,9.803965443,0,0,0,298,0
0,0.126099769,-0.083408656,9.841137904,0,0,0,299,0
0,-0.056851929,-0.069222258,9.811635827,0,0,0,301,0
0,0.00502356,-0.034987849,9.74966215,0,0,0,301,0
0,-0.107742836,0.154057361,9.706982409,0,0,0,302,0
0,0.038562707,-0.085601909,9.703537734,0,0,0,298,0
0,-0.037744097,0.029201025,9.820994566,0,0,0,299,0
0,-0.192581391,0.204083486,9.553001184,0,0,0,300,0
0,-0.090681244,0.054548828,9.983902018,0,0,0,298,0
0,-0.06005368,-0.054083185,9.880951961,0,0,0,299,0
0,0.124844592,-0.068513662,9.814546011,0,0,0,299,0
0,0.062692245,-0.031101324,9.688940388,0,0,0,302,0
0,-0.021246014,-0.1298079,9.831916508,0,0,0,302,0
0,0.172172971,-0.054854277,9.664558909,0,0,0,298,0
0,-0.16626506,-0.060292894,9.912494767,0,0,0,301,0
0,-0.058412226,0.036494734,9.839163131,0,0,0,302,0
0,-0.031664254,-0.067176099,9.852761463,0,0,0,299,0
0,0.00949538,0.048874395,9.873344054,0,0,0,303,0
0,0.235031842,0.067431133,9.836582392,0,0,0,298,0
0,0.111355013,-0.112260674,9.892841257,0,0,0,303,0
0,-0.18316507,0.001183716,9.92523794,0,0,0,300,0
0,-0.060938367,-0.07197422,9.860678967,0,0,0,298,0
0,0.071776473,-0.089752843,9.790583811,0,0,0,297,0
0,0.066231614,0.040758723,9.835589808,0,0,0,298,0
0,-0.191455333,-0.055008336,9.903984407,0,0,0,304,0
0,0.065389616,0.051005103,9.634684048,0,0,0,299,0
0,-0.010060056,0.002490731,9.88681712,0,0,0,301,0
0,0.128417863,-0.140219268,9.896639848,0,0,0,302,0
0,-0.094263235,0.042282342,9.816908665,0,0,0,300,0
0,0.18080524,-0.005513762,9.879774376,0,0,0,300,0
0,0.106906824,0.077158235,9.679312405,0,0,0,298,0
0,0.013081142,0.157246389,9.801263966,0,0,0,295,0
0,-0.162354394,-0.075492908,9.814887166,0,0,0,297,0
0,0.105513668,0.02079515,9.591786527,0,0,0,300,0
0,-0.039558053,0.010354551,9.840653885,0,0,0,298,0
0,0.073177867,0.136711506,10.00098791,0,0,0,298,0
0,-0.034912286,0.106001064,9.766074414,0,0,0,298,0
0,-0.15345534,-0.054786086,9.836644865,0,0,0,297,0
0,0.036489291,-0.131206786,9.791507687,0,0,0,299,0
0,-0.000962659,0.072007816,9.869058538,0,0,0,300,0
0,0.105735966,-0.060113441,9.732743024,0,0,0,301,0
0,-0.085875203,0.192187405,9.833067546,0,0,0,300,0
0,0.133006939,-0.049491054,9.695854091,0,0,0,296,0
0,0.108652776,0.166374257,9.601398565,0,0,0,299,0
0,-0.136604259,0.027279457,9.817151982,0,0,0,301,0
0,0.072998967,0.161795322,9.721731642,0,0,0,299,0
0,0.008187972,-0.146415299,9.795614709,0,0,0,297,0
0,0.019966601,0.113140796,9.783155372,0,0,0,297,0
0,0.101480547,1.473211435,9.563612603,0,0,0,305,1
0,1.300729952,3.221168793,9.242459803,0,0,0,314,1
0,3.99233029,1.506630545,9.814182676,0,0,0,312,1
0,3.315933232,-0.618142439,9.514207143,0,0,0,307,1
0,3.246384653,-1.382849121,10.06098293,0,0,0,310,1
0,1.108631931,-0.999925265,9.475694236,0,0,0,314,1
0,-0.625402968,-1.224807054,10.01418297,0,0,0,301,1
0,-2.717995469,-2.033267721,9.862377534,0,0,0,309,1
0,-4.821271224,-0.641857049,9.725281314,0,0,0,313,1
0,-2.925033815,0.401717392,10.60322474,0,0,0,304,1
0,-3.799368327,1.019970647,9.141959034,0,0,0,301,1
0,-1.499389639,1.700925538,10.05603387,0,0,0,307,1
0,0.93156074,1.768755957,9.965819414,0,0,0,310,1
0,1.906232362,0.788241312,9.615100507,0,0,0,310,1
0,4.380544292,0.686015594,10.15249131,0,0,0,307,1
0,4.367522924,-0.612804535,10.14551759,0,0,0,310,1
0,3.01623898,-1.178352457,9.975215882,0,0,0,314,1
0,0.104176955,-1.271075039,9.964849738,0,0,0,316,1
0,-1.70361284,-1.936380907,10.09504513,0,0,0,313,1
0,-2.601133031,-0.837749113,9.797612251,0,0,0,316,1
0,-3.862855395,0.298447604,9.400049586,0,0,0,311,1
0,-4.30748865,0.186459427,9.860052483,0,0,0,315,1
0,-1.54277153,2.275934131,9.744294324,0,0,0,312,1
0,0.162101473,2.297528943,9.432600215,0,0,0,301,1
0,3.326272251,1.749664462,9.914736257,0,0,0,313,1
0,4.327526369,1.675790295,10.09439336,0,0,0,304,1
0,4.102576944,-0.133722561,10.08046837,0,0,0,309,1
0,2.69042255,-1.143531084,10.73503158,0,0,0,308,1
0,2.432504426,-1.188680286,10.06352435,0,0,0,298,1
0,-1.14788943,-2.044487943,9.310098635,0,0,0,308,1
0,-2.028344172,-2.131958297,9.228592038,0,0,0,302,1
0,-4.328674787,-0.369887035,9.798766618,0,0,0,310,1
0,-4.219303489,-0.297664391,10.07396733,0,0,0,312,1
0,-3.817793043,1.348536181,10.18219922,0,0,0,309,1
0,-1.591838401,1.235743155,9.827222894,0,0,0,307,1
0,0.832598388,2.221341892,10.15039295,0,0,0,307,1
0,3.255401868,1.829734096,9.565037634,0,0,0,303,1
0,4.140194844,0.391906754,9.965673802,0,0,0,309,1
0,3.926021446,-0.879879243,9.714216355,0,0,0,305,1
0,2.514750975,-2.089262255,9.998330047,0,0,0,312,1
0,0.714226862,-1.454718364,9.407597531,0,0,0,303,1
0,-1.828896424,-2.028311363,9.527181231,0,0,0,302,1
0,-3.829510384,-0.828384473,10.03245978,0,0,0,318,1
0,-3.889650092,-0.551646872,9.978252612,0,0,0,304,1
0,-3.537962146,1.020491453,10.14454089,0,0,0,300,1
0,-3.151159745,1.368896503,9.861002011,0,0,0,308,1
0,0.101498115,1.412927392,9.632465221,0,0,0,309,1
0,2.360223482,1.791654099,9.914506699,0,0,0,309,1
0,3.851533962,0.263686412,9.689520741,0,0,0,308,1
0,4.080724035,-0.579895837,10.23112219,0,0,0,310,1
0,3.139638315,-1.436595874,9.377430636,0,0,0,307,1
0,1.434433158,-2.108531607,9.526380769,0,0,0,311,1
0,-0.204596745,-2.756101268,9.608380491,0,0,0,315,1
0,-2.217011246,-1.672752735,10.52299216,0,0,0,310,1
0,-3.465576025,-0.805026576,9.682570717,0,0,0,316,1
0,-3.808219826,-0.674881463,9.311619123,0,0,0,315,1
0,-2.206586123,0.982659234,9.757367433,0,0,0,305,1
0,-1.230017203,2.479959653,9.550735116,0,0,0,304,1
0,0.954396833,1.945319709,9.867942329,0,0,0,302,1
0,2.391539833,1.023490078,9.601171674,0,0,0,303,1
0,4.136141611,0.405229498,9.578554476,0,0,0,310,1
0,2.99103849,-1.222750837,9.54207681,0,0,0,306,1
0,2.85499471,-1.765984694,10.03692971,0,0,0,321,1
0,0.550378302,-2.709071489,9.554592076,0,0,0,316,1
0,-1.749469581,-1.69597353,9.97277695,0,0,0,306,1
0,-3.180067965,-1.586631655,9.811645598,0,0,0,314,1
0,-4.109011114,-0.520343567,10.02093832,0,0,0,314,1
0,-3.24112706,1.04220345,9.453212237,0,0,0,315,1
0,-1.76445045,1.473037736,9.628708035,0,0,0,310,1
0,0.604063793,2.164488601,9.69917842,0,0,0,300,1
0,2.191701664,1.401302073,9.666458178,0,0,0,315,1
0,3.781958478,0.688467575,10.08831776,0,0,0,312,1
0,4.319545852,-0.068122558,9.664589989,0,0,0,303,1
0,3.176870463,-0.362691744,10.2752787,0,0,0,313,1
0,2.258204451,-1.894795676,10.06265901,0,0,0,310,1
0,-0.898840869,-1.438407935,9.54259678,0,0,0,308,1
0,-2.587341943,-1.565068281,9.685291272,0,0,0,306,1
0,-3.869583888,-0.465961075,9.971418875,0,0,0,311,1
0,-3.691728852,0.13692836,9.888988629,0,0,0,309,1
0,-2.783096566,1.537951891,10.01322448,0,0,0,306,1
0,-0.777570166,1.518644324,9.507287092,0,0,0,306,1
0,0.44827985,2.188342091,10.12129863,0,0,0,310,1
0,3.314795844,1.2302395,9.642567591,0,0,0,313,1
0,3.903366527,-0.013228106,9.607078872,0,0,0,300,1
0,3.906254486,0.248625008,10.23854079,0,0,0,311,1
0,2.017296125,-1.510434962,9.929014124,0,0,0,313,1
0,-1.06002002,-1.01011699,9.232574178,0,0,0,309,1
0,-2.075916706,-1.231996941,10.03803815,0,0,0,303,1
0,-3.325702699,-0.736876315,9.9671337,0,0,0,305,1
0,-4.403879118,-1.334198031,9.535699785,0,0,0,313,1
0,-3.503309372,0.3112357,9.953990355,0,0,0,311,1
0,-2.131539532,1.86770357,10.2917823,0,0,0,310,1
0,0.424940579,1.928910269,9.920381763,0,0,0,308,1
0,2.760678943,1.436729249,10.10116334,0,0,0,312,1
0,3.126385995,0.787764865,9.895308967,0,0,0,308,1
0,3.450154705,0.049684564,9.691568088,0,0,0,303,1
0,2.802716808,-1.175110473,9.297243324,0,0,0,312,1
0,-0.133415388,-1.539477268,10.04112675,0,0,0,313,1
0,-0.129295413,-2.50496383,9.64898334,0,0,0,316,1
0,-2.762610642,-1.58071088,9.908109166,0,0,0,309,1
0,-4.761072819,-0.777241923,10.14927418,0,0,0,302,1
0,-4.651448837,1.165102668,9.401163244,0,0,0,304,1
0,-2.081422589,1.198644731,9.948691841,0,0,0,315,1
0,-1.44875778,2.661367603,9.999194427,0,0,0,304,1
0,1.225614744,2.101863179,10.24723165,0,0,0,310,1
0,3.243182732,1.591647192,9.707182585,0,0,0,300,1
0,2.94697725,0.43097361,9.675597923,0,0,0,308,1
0,3.870928644,-0.480092651,9.064269281,0,0,0,305,1
0,1.563459242,-1.537651939,9.960103583,0,0,0,313,1
0,0.746160092,-1.737215704,9.372853111,0,0,0,316,1
0,-1.846821059,-1.806052595,9.649642139,0,0,0,306,1
0,-2.353649182,-0.587279315,10.32955228,0,0,0,301,1
0,-3.697342237,-0.118031478,9.92535324,0,0,0,304,1
0,-3.324069873,1.692354427,9.861860853,0,0,0,310,1
0,-1.944778607,1.63075329,10.2099555,0,0,0,307,1
0,0.215232478,2.358601928,9.866591552,0,0,0,319,1
0,2.501645082,1.176417879,9.316770928,0,0,0,312,1
0,2.672638985,0.156274287,10.14379774,0,0,0,311,1
0,3.25419008,-0.094237686,9.86494548,0,0,0,309,1
0,2.862655511,-1.402036768,9.995847764,0,0,0,309,1
0,0.736884477,-1.423017572,9.815355672,0,0,0,312,1
0,-0.293290523,-1.929500544,9.781666082,0,0,0,312,1
0,-2.427167069,-2.282603241,9.574809199,0,0,0,309,1
0,-4.229532244,-0.741435301,9.484582626,0,0,0,304,1
0,-3.212674339,0.091953578,10.41002274,0,0,0,310,1
0,-3.509782557,1.617787005,9.857311043,0,0,0,312,1
0,-0.516750255,1.553350228,9.80972246,0,0,0,308,1
0,0.670749945,2.041778036,9.660024737,0,0,0,319,1
0,1.848764283,2.090538042,10.26206802,0,0,0,309,1
0,3.954690549,0.962616416,9.75213237,0,0,0,298,1
0,4.913998134,-0.027030749,9.856432388,0,0,0,309,1
0,2.224621377,-1.402978855,10.02173682,0,0,0,309,1
0,0.282928732,-2.140899964,9.977521058,0,0,0,314,1
0,-1.194915883,-1.435762607,9.712214463,0,0,0,307,1
0,-3.433991836,-1.094679249,9.907544737,0,0,0,313,1
0,-4.563242572,-0.369375382,9.173789048,0,0,0,317,1
0,-3.218884241,1.344677348,9.681900185,0,0,0,309,1
0,-1.628310512,1.498867394,9.618263223,0,0,0,309,1
0,-0.134523302,2.177219867,9.840518515,0,0,0,314,1
0,1.000485014,2.350403236,10.07769426,0,0,0,308,1
0,3.810424197,0.868674043,9.786589297,0,0,0,309,1
0,4.495688454,-0.648697338,9.744027085,0,0,0,318,1
0,4.584700214,-2.14819967,9.743830977,0,0,0,308,1
0,1.595996307,-1.004296538,9.592600619,0,0,0,319,1
0,-1.07659969,-1.322182735,9.144720367,0,0,0,305,1
0,-2.067834933,-2.094458472,9.873697533,0,0,0,312,1
0,-3.52451971,-1.041421846,10.13443886,0,0,0,307,1
0,-3.665987031,0.237512384,9.586155132,0,0,0,311,1
0,-3.194946896,0.945792232,9.925712724,0,0,0,312,1
0,-1.010179183,2.426050922,9.547815026,0,0,0,302,1
0,0.854173917,2.161887069,9.368868584,0,0,0,313,1
0,3.006987115,1.159615966,9.756917737,0,0,0,322,1
0,3.732472435,0.533472973,9.834379505,0,0,0,311,1
0,3.413382013,-1.457067403,10.60908569,0,0,0,303,1
0,3.256167533,-1.484599611,9.812672508,0,0,0,313,1
0,0.099324335,-1.644680043,9.717436931,0,0,0,302,1
0,-2.079779446,-1.323769426,10.02690188,0,0,0,309,1
0,-3.753922405,-0.293049235,9.361479965,0,0,0,311,1
0,-4.208384845,-0.341638183,9.295310999,0,0,0,320,1
0,-3.074269845,0.138515086,10.56474996,0,0,0,308,1
0,-1.025733321,0.96891782,9.534574669,0,0,0,300,1
0,0.273094913,1.939492704,9.993565321,0,0,0,311,1
0,2.252635313,1.85230117,9.932569051,0,0,0,311,1
0,3.297995973,0.641318234,9.622028713,0,0,0,315,1
0,3.864534363,-0.25835195,9.539963638,0,0,0,312,1
0,2.844982788,-0.592969544,9.672173799,0,0,0,313,1
0,1.62262115,-2.186981831,9.945638715,0,0,0,308,1
0,-1.413981575,-1.866944543,9.5857511,0,0,0,317,1
0,-0.806850829,-0.938939488,9.425818001,0,0,0,308,1
0,-2.988987845,0.140845905,9.648595677,0,0,0,311,1
0,-3.407660086,0.694646297,9.518914584,0,0,0,313,1
0,-2.61120959,1.752380393,9.491631907,0,0,0,306,1
0,-0.834081581,2.746487961,10.09903201,0,0,0,311,1
0,1.808336814,1.144505536,9.905859173,0,0,0,314,1
0,3.650782784,1.496851667,9.924259843,0,0,0,308,1
0,3.673000648,0.112033539,10.34867305,0,0,0,307,1
0,4.117123338,-0.924257299,9.50401101,0,0,0,311,1
0,1.863615467,-1.324738271,9.806904523,0,0,0,317,1
0,0.227669734,-2.579261298,9.639750476,0,0,0,315,1
0,-2.320064097,-2.433309473,9.779991736,0,0,0,318,1
0,-2.858861316,-1.08674176,9.742933428,0,0,0,316,1
0,-4.314149586,0.249964228,9.649325275,0,0,0,311,1
0,-3.407383306,1.64665526,9.767422569,0,0,0,313,1
0,-1.931407537,2.125888308,9.881194949,0,0,0,306,1
0,-0.008548609,1.93217483,9.437031221,0,0,0,308,1
0,1.359572591,2.238592707,9.994465868,0,0,0,299,1
0,3.261324613,1.458651222,9.234138227,0,0,0,310,1
0,5.148434533,-0.841566406,9.791370443,0,0,0,318,1
0,3.069918305,-0.666366134,10.34837985,0,0,0,313,1
0,2.149974437,-1.756747149,10.06573927,0,0,0,309,1
0,-0.376203372,-2.628229977,9.574433351,0,0,0,310,1
0,-2.525845626,-1.357204822,10.23563678,0,0,0,315,1
0,-3.033666351,-0.780982086,9.869153639,0,0,0,309,1
0,-3.253822161,0.196996211,9.881568466,0,0,0,312,1
0,-2.610340683,1.448029857,10.01359413,0,0,0,316,1
0,-1.106319313,1.43330952,9.78978008,0,0,0,307,1
0,1.198237167,1.895651737,9.819050545,0,0,0,312,1
0,3.197388603,1.646777214,9.869348108,0,0,0,308,1
0,3.236019715,0.67590868,10.05168536,0,0,0,307,1
0,4.092708339,-1.762563863,9.671741154,0,0,0,318,1
0,4.111035147,-1.660877251,10.44284031,0,0,0,306,1
0,0.516225887,-1.384735403,9.847451824,0,0,0,309,1
0,-2.587520416,-2.199293246,10.02633751,0,0,0,302,1
0,-4.448918344,-1.155836122,9.699702155,0,0,0,310,1
0,-4.232542851,-0.262454122,9.977322767,0,0,0,314,1
0,-4.552730735,0.936333698,9.772882514,0,0,0,315,1
0,-2.599949085,0.795494799,9.860058274,0,0,0,305,1
0,-0.411147975,2.408985976,9.276407739,0,0,0,304,1
0,1.481838485,2.222194573,9.945757004,0,0,0,308,1
0,3.49516129,0.833029487,9.354249753,0,0,0,304,1
0,2.960770158,-0.1491385,9.310393046,0,0,0,311,1
0,3.378320918,-0.383028006,9.828731898,0,0,0,311,1
0,1.559721107,-1.75381193,10.06913095,0,0,0,303,1
0,-0.752432684,-1.796870066,9.770279232,0,0,0,306,1
0,-2.202716609,-0.942530332,9.355207204,0,0,0,303,1
0,-3.668894238,-0.700975438,9.42605873,0,0,0,314,1
0,-3.834274318,1.245609349,9.950775186,0,0,0,300,1
0,-2.603363792,0.836284536,9.625097363,0,0,0,310,1
0,-1.110270772,0.815572611,9.845057846,0,0,0,311,1
0,1.760982933,0.649919782,9.806966459,0,0,0,316,1
0,2.157185011,2.139714284,9.503509023,0,0,0,311,1
0,4.477662399,0.757001075,9.717200952,0,0,0,304,1
0,3.44553717,-0.841669494,9.868778636,0,0,0,307,1
0,1.588523955,-0.928397575,10.31748746,0,0,0,305,1
0,0.665872104,-1.416683712,9.600146389,0,0,0,312,1
0,-0.159942644,-2.010032427,9.49330518,0,0,0,315,1
0,-3.106341143,-1.012810462,9.933581479,0,0,0,312,1
0,-2.904426391,0.435585165,9.638347746,0,0,0,308,1
0,-2.825349954,0.592251886,9.780445941,0,0,0,316,1
0,-1.510053328,0.698646896,9.882984504,0,0,0,304,1
0,0.553623526,2.246479783,9.958160723,0,0,0,309,1
0,2.019890651,1.179393654,10.18924426,0,0,0,314,1
0,4.496486096,1.78766806,9.556768717,0,0,0,313,1
0,3.469331225,-0.17688522,10.12764499,0,0,0,303,1
0,2.365376793,-0.645814647,9.898618989,0,0,0,312,1
0,1.974063979,-2.19995443,9.742264491,0,0,0,313,1
0,-0.012064757,-1.591415729,9.673961321,0,0,0,312,1
0,-2.517844942,-2.03120059,9.769792457,0,0,0,305,1
0,-3.71192289,-0.377217514,10.08259352,0,0,0,312,1
0,-4.455554165,0.09109178,9.928974062,0,0,0,311,1
0,-3.244208443,1.28393727,9.474269895,0,0,0,312,1
0,-1.576476431,1.974560276,10.06088601,0,0,0,318,1
0,1.436625255,1.104462205,9.504483447,0,0,0,300,1
0,2.610720615,1.010073186,9.460187488,0,0,0,314,1
0,4.202380488,0.456127604,10.12635834,0,0,0,313,1
0,3.649559921,-0.630909941,9.756420779,0,0,0,316,1
0,3.243805935,-0.131018968,8.959241918,0,0,0,316,1
0,0.425153747,-2.097342863,9.701480373,0,0,0,321,1
0,-2.03008079,-1.707466227,10.14046488,0,0,0,314,1
0,-2.746377377,-1.717195769,9.57836219,0,0,0,306,1
0,-4.287160753,-0.952229934,10.00324188,0,0,0,311,1
0,-3.520702874,0.963102079,9.712674111,0,0,0,303,1
0,-1.623968613,1.959866747,9.628752868,0,0,0,309,1
0,0.167917661,1.311745934,10.04527121,0,0,0,316,1
0,2.07731719,1.936125123,9.407611672,0,0,0,308,1
0,2.607712887,1.078701153,9.330831642,0,0,0,315,1
0,3.97097896,-0.284204413,9.677437752,0,0,0,311,1
0,3.11808955,-0.893140362,9.491708848,0,0,0,315,1
0,1.772542153,-2.515173894,9.69689994,0,0,0,308,1
0,-0.654828257,-1.629552517,9.591239931,0,0,0,318,1
0,-2.778522827,-0.980331033,10.0954634,0,0,0,311,1
0,-3.526248217,-1.082841911,9.88213593,0,0,0,314,1
0,-3.682486595,0.207788308,10.02516197,0,0,0,314,1
0,-2.204907625,1.226227925,9.81678714,0,0,0,310,1
0,-0.416981515,1.267242662,9.758464363,0,0,0,309,1
0,1.293660344,1.613321849,10.04581509,0,0,0,313,1
0,3.388999382,1.034646757,9.929191575,0,0,0,306,1
0,4.029633672,0.658738488,10.17000783,0,0,0,306,1
0,3.948491101,-0.531839984,9.955043237,0,0,0,310,1
0,2.650452481,-0.451138124,9.230179286,0,0,0,309,1
0,0.636310786,-2.277492426,10.50254929,0,0,0,309,1
0,-2.455674998,-1.558721221,9.846520924,0,0,0,307,1
0,-3.230915337,-1.684563766,10.11648598,0,0,0,313,1
0,-3.525144823,0.528218294,9.796575303,0,0,0,302,1
0,-3.561440761,1.349987092,9.947595154,0,0,0,305,1
0,-2.857861012,2.557933461,10.30066798,0,0,0,317,1
0,0.032995047,2.252421991,10.16944336,0,0,0,313,1
0,2.350964242,1.856932366,9.971922286,0,0,0,308,1
0,4.221109519,0.853246627,9.675621442,0,0,0,306,1
0,4.066764696,0.174483609,9.555616012,0,0,0,304,1
0,2.484819668,-1.142419034,9.716973815,0,0,0,315,1
0,1.268663707,-2.215505584,9.571259821,0,0,0,307,1
0,-0.646668409,-1.62330776,9.757718163,0,0,0,316,1
0,-1.90449495,-2.026239104,10.18098357,0,0,0,306,1
0,-4.117776937,-0.112150746,9.893894044,0,0,0,303,1
0,-4.120921884,-0.384130979,9.756316445,0,0,0,308,1
0,-2.638580104,0.89691096,10.06092124,0,0,0,316,1
0,-1.137171726,1.448603312,9.883655351,0,0,0,314,1
0,1.064601684,2.056769243,9.516547261,0,0,0,317,1
0,3.178567157,1.562338066,9.018845521,0,0,0,301,1
0,4.001553323,0.847704657,9.820219672,0,0,0,315,1
0,3.894746098,-0.364446964,10.05271704,0,0,0,316,1
0,2.690774851,-1.57297103,9.811927408,0,0,0,305,1
0,0.626632142,-1.786603277,10.02577162,0,0,0,299,1
0,-2.149546889,-2.125701899,9.168659845,0,0,0,310,1
0,-3.095582575,-1.034210185,10.03016488,0,0,0,312,1
0,-4.639143931,-0.620999772,9.993267886,0,0,0,313,1
0,-4.660225591,1.047949792,9.512429505,0,0,0,310,1
0,-2.685904731,1.979478053,10.10478559,0,0,0,314,1
0,-0.450479325,1.413974331,9.777899392,0,0,0,302,1
0,1.546552526,2.267402864,9.99242199,0,0,0,308,1
0,3.539424853,1.724587441,9.948741963,0,0,0,315,1
0,3.693150192,-0.462952665,10.17713667,0,0,0,312,1
0,2.911519905,-1.451662801,10.15583495,0,0,0,308,1
0,1.853727407,-1.830191321,10.23350112,0,0,0,303,1
0,-0.856174505,-0.951246549,9.659177925,0,0,0,315,1
0,-1.718442805,-1.028840364,9.73769521,0,0,0,317,1
0,-3.210943384,-0.584560777,9.978110796,0,0,0,298,1
0,-4.290811683,-0.207417243,9.505910989,0,0,0,306,1
0,-3.494999418,1.764770256,9.219950405,0,0,0,310,1
0,-1.802316337,1.552019297,10.44384467,0,0,0,312,1
0,0.785474158,1.843290067,10.11829453,0,0,0,317,1
0,3.447454431,2.591401848,9.903035716,0,0,0,305,1
0,3.549850774,1.23614612,9.724058694,0,0,0,305,1
0,3.947107895,0.30397768,10.12389099,0,0,0,305,1
0,2.164351274,-1.040609349,10.22595549,0,0,0,311,1
0,1.09347613,-1.076929789,9.985376056,0,0,0,314,1
0,-1.729160879,-0.769551253,9.69440038,0,0,0,314,1
0,-2.661482632,-0.580692058,10.11519221,0,0,0,313,1
0,-4.838621669,-0.258638793,9.824981452,0,0,0,312,1
0,-3.854827887,1.295966575,10.28192024,0,0,0,303,1
0,-2.557331269,2.136670657,10.10349575,0,0,0,309,1
0,0.228198677,2.188782063,9.874733693,0,0,0,308,1
0,1.921094886,1.081115741,10.02151587,0,0,0,307,1
0,3.922510824,0.787830915,10.11225553,0,0,0,302,1
0,3.918060333,-0.226922116,10.04395987,0,0,0,311,1
0,3.203022344,-1.319390405,10.12841528,0,0,0,302,1
0,0.760718509,-1.484136776,9.508804614,0,0,0,305,1
0,0.492769215,-1.377431037,9.892613924,0,0,0,307,1
0,-2.960829956,-0.918933634,9.700230761,0,0,0,314,1
0,-2.864361631,-1.07407363,9.843545434,0,0,0,309,1
0,-3.240371178,1.016418911,9.785142048,0,0,0,304,1
0,-3.060227902,1.801811247,9.746698985,0,0,0,312,1
0,-1.541863914,2.538933576,9.971663246,0,0,0,307,1
0,1.040173977,2.234378939,9.867797862,0,0,0,308,1
0,2.635329449,0.995481188,10.04521084,0,0,0,306,1
0,3.412960254,0.915986397,9.574293396,0,0,0,301,1
0,3.305765878,-0.332075705,9.883259981,0,0,0,308,1
0,2.669581413,-1.628308533,10.11628643,0,0,0,307,1
0,0.634619611,-2.048013078,10.19314526,0,0,0,300,1
0,-1.579523395,-2.502656151,9.755105729,0,0,0,311,1
0,-3.344914045,-1.880462129,9.5317436,0,0,0,307,1
0,-4.537750588,0.125460625,9.878243395,0,0,0,305,1
0,-4.25003265,1.295404922,9.642222672,0,0,0,308,1
0,-2.505909242,1.941079283,9.402029719,0,0,0,320,1
0,-0.790135395,1.7395002,9.494861384,0,0,0,314,1
0,2.565277305,2.28840567,9.790571038,0,0,0,309,1
0,3.798488638,0.707235794,9.808514275,0,0,0,312,1
0,3.699682125,-0.548673018,9.861953949,0,0,0,316,1
0,3.148222835,-0.950085355,9.879402672,0,0,0,314,1
0,1.038295383,-1.102561663,9.36009669,0,0,0,308,1
0,-1.573561887,-1.676246842,10.01682554,0,0,0,310,1
0,-3.017412353,-1.117266139,10.2385923,0,0,0,300,1
0,-3.376503247,0.10489306,9.710011305,0,0,0,307,1
0,-3.244669469,-0.386108786,9.684545399,0,0,0,305,1
0,-2.773721828,1.89680196,9.586914938,0,0,0,304,1
0,-0.704851706,1.634277549,9.337453308,0,0,0,311,1
0,1.296690113,2.16977292,9.93030076,0,0,0,309,1
0,3.40527065,1.743759586,9.959978672,0,0,0,318,1
0,3.84260926,0.725856195,9.796156818,0,0,0,317,1
0,3.491222869,-0.700364587,9.999493352,0,0,0,298,1
0,2.317522467,-1.450933836,10.02121515,0,0,0,311,1
0,1.032859285,-1.586435009,9.999507179,0,0,0,314,1
0,-2.647929252,-1.76116137,10.25477606,0,0,0,312,1
0,-3.911827132,-0.991681361,10.09697894,0,0,0,309,1
0,-4.789367605,0.058557873,10.42989602,0,0,0,314,1
0,-3.747651062,1.035990526,9.576402592,0,0,0,315,1
